"Participant","Task","Task_Order","Duration","Screen_Resolution","Screen_Size","Screen_Refresh","Browser","Browser_Version","Device_OS","Illusion_Type","Block","Trial","Stimulus","Illusion_Strength","Illusion_Effect","Illusion_Side","Illusion_Difference","Answer","Error","RT"
"S005","Illusion_Session1",2,40.5850666666667,"1920x947",1.81824,144.23,"firefox","106.0.0","Windows 10","MullerLyer","1",19,"MullerLyer_-5.25714_0.05000",-5.25714,"Congruent",1,0.05,"up",0,0.661
"S005","Illusion_Session1",2,40.5850666666667,"1920x947",1.81824,144.23,"firefox","106.0.0","Windows 10","MullerLyer","1",20,"MullerLyer_-5.25714_-0.10808",-5.25714,"Congruent",-1,0.10808,"down",0,0.766
"S005","Illusion_Session1",2,40.5850666666667,"1920x947",1.81824,144.23,"firefox","106.0.0","Windows 10","MullerLyer","1",22,"MullerLyer_23.0000_-0.10808",23,"Incongruent",-1,0.10808,"up",1,0.856
"S005","Illusion_Session1",2,40.5850666666667,"1920x947",1.81824,144.23,"firefox","106.0.0","Windows 10","MullerLyer","1",23,"MullerLyer_-23.000_0.10808",-23,"Congruent",1,0.10808,"up",0,0.714
"S005","Illusion_Session1",2,40.5850666666667,"1920x947",1.81824,144.23,"firefox","106.0.0","Windows 10","MullerLyer","1",24,"MullerLyer_23.0000_-0.18826",23,"Incongruent",-1,0.18826,"up",1,0.897
"S005","Illusion_Session1",2,40.5850666666667,"1920x947",1.81824,144.23,"firefox","106.0.0","Windows 10","MullerLyer","1",25,"MullerLyer_11.17143_-0.29056",11.17143,"Incongruent",-1,0.29056,"down",0,0.847
"S005","Illusion_Session1",2,40.5850666666667,"1920x947",1.81824,144.23,"firefox","106.0.0","Windows 10","MullerLyer","1",26,"MullerLyer_-23.000_0.18826",-23,"Congruent",1,0.18826,"up",0,0.543
"S005","Illusion_Session1",2,40.5850666666667,"1920x947",1.81824,144.23,"firefox","106.0.0","Windows 10","MullerLyer","1",27,"MullerLyer_-23.000_-0.18826",-23,"Congruent",-1,0.18826,"down",0,0.56
"S005","Illusion_Session1",2,40.5850666666667,"1920x947",1.81824,144.23,"firefox","106.0.0","Windows 10","MullerLyer","1",28,"MullerLyer_-5.25714_0.10808",-5.25714,"Congruent",1,0.10808,"up",0,0.721
"S005","Illusion_Session1",2,40.5850666666667,"1920x947",1.81824,144.23,"firefox","106.0.0","Windows 10","MullerLyer","1",29,"MullerLyer_11.17143_-0.0500",11.17143,"Incongruent",-1,0.05,"up",1,0.95
"S005","Illusion_Session1",2,40.5850666666667,"1920x947",1.81824,144.23,"firefox","106.0.0","Windows 10","MullerLyer","1",30,"MullerLyer_23.0000_-0.29056",23,"Incongruent",-1,0.29056,"down",0,1.346
"S005","Illusion_Session1",2,40.5850666666667,"1920x947",1.81824,144.23,"firefox","106.0.0","Windows 10","MullerLyer","1",31,"MullerLyer_-11.17143_0.18826",-11.17143,"Congruent",1,0.18826,"up",0,0.665
"S005","Illusion_Session1",2,40.5850666666667,"1920x947",1.81824,144.23,"firefox","106.0.0","Windows 10","MullerLyer","1",32,"MullerLyer_17.08571_0.10808",17.08571,"Incongruent",1,0.10808,"down",1,0.987
"S005","Illusion_Session1",2,40.5850666666667,"1920x947",1.81824,144.23,"firefox","106.0.0","Windows 10","MullerLyer","1",33,"MullerLyer_17.08571_-0.10808",17.08571,"Incongruent",-1,0.10808,"up",1,0.965
"S005","Illusion_Session1",2,40.5850666666667,"1920x947",1.81824,144.23,"firefox","106.0.0","Windows 10","MullerLyer","1",34,"MullerLyer_17.08571_0.18826",17.08571,"Incongruent",1,0.18826,"up",0,1.552
"S005","Illusion_Session1",2,40.5850666666667,"1920x947",1.81824,144.23,"firefox","106.0.0","Windows 10","MullerLyer","1",35,"MullerLyer_-17.08571_-0.18826",-17.08571,"Congruent",-1,0.18826,"down",0,0.689
"S005","Illusion_Session1",2,40.5850666666667,"1920x947",1.81824,144.23,"firefox","106.0.0","Windows 10","MullerLyer","1",36,"MullerLyer_-23.000_0.29056",-23,"Congruent",1,0.29056,"up",0,0.778
"S005","Illusion_Session1",2,40.5850666666667,"1920x947",1.81824,144.23,"firefox","106.0.0","Windows 10","MullerLyer","1",37,"MullerLyer_-23.000_-0.0500",-23,"Congruent",-1,0.05,"down",0,0.592
"S005","Illusion_Session1",2,40.5850666666667,"1920x947",1.81824,144.23,"firefox","106.0.0","Windows 10","MullerLyer","1",38,"MullerLyer_-11.17143_0.29056",-11.17143,"Congruent",1,0.29056,"up",0,0.848
"S005","Illusion_Session1",2,40.5850666666667,"1920x947",1.81824,144.23,"firefox","106.0.0","Windows 10","MullerLyer","1",39,"MullerLyer_-17.08571_0.18826",-17.08571,"Congruent",1,0.18826,"up",0,0.915
"S005","Illusion_Session1",2,40.5850666666667,"1920x947",1.81824,144.23,"firefox","106.0.0","Windows 10","MullerLyer","1",40,"MullerLyer_11.17143_0.18826",11.17143,"Incongruent",1,0.18826,"up",0,1.419
"S005","Illusion_Session1",2,40.5850666666667,"1920x947",1.81824,144.23,"firefox","106.0.0","Windows 10","MullerLyer","1",41,"MullerLyer_5.25714_-0.29056",5.25714,"Incongruent",-1,0.29056,"down",0,0.702
"S005","Illusion_Session1",2,40.5850666666667,"1920x947",1.81824,144.23,"firefox","106.0.0","Windows 10","MullerLyer","1",42,"MullerLyer_-5.25714_-0.29056",-5.25714,"Congruent",-1,0.29056,"down",0,0.605
"S005","Illusion_Session1",2,40.5850666666667,"1920x947",1.81824,144.23,"firefox","106.0.0","Windows 10","MullerLyer","1",43,"MullerLyer_23.0000_0.10808",23,"Incongruent",1,0.10808,"down",1,1.406
"S005","Illusion_Session1",2,40.5850666666667,"1920x947",1.81824,144.23,"firefox","106.0.0","Windows 10","MullerLyer","1",44,"MullerLyer_5.25714_-0.10808",5.25714,"Incongruent",-1,0.10808,"down",0,0.947
"S005","Illusion_Session1",2,40.5850666666667,"1920x947",1.81824,144.23,"firefox","106.0.0","Windows 10","MullerLyer","1",45,"MullerLyer_-23.000_-0.10808",-23,"Congruent",-1,0.10808,"down",0,0.666
"S005","Illusion_Session1",2,40.5850666666667,"1920x947",1.81824,144.23,"firefox","106.0.0","Windows 10","MullerLyer","1",46,"MullerLyer_23.0000_0.29056",23,"Incongruent",1,0.29056,"up",0,1.042
"S005","Illusion_Session1",2,40.5850666666667,"1920x947",1.81824,144.23,"firefox","106.0.0","Windows 10","MullerLyer","1",47,"MullerLyer_-23.000_0.05000",-23,"Congruent",1,0.05,"up",0,0.76
"S005","Illusion_Session1",2,40.5850666666667,"1920x947",1.81824,144.23,"firefox","106.0.0","Windows 10","MullerLyer","1",48,"MullerLyer_23.0000_-0.0500",23,"Incongruent",-1,0.05,"up",1,0.893
"S005","Illusion_Session1",2,40.5850666666667,"1920x947",1.81824,144.23,"firefox","106.0.0","Windows 10","MullerLyer","1",49,"MullerLyer_5.25714_-0.0500",5.25714,"Incongruent",-1,0.05,"up",1,1.091
"S005","Illusion_Session1",2,40.5850666666667,"1920x947",1.81824,144.23,"firefox","106.0.0","Windows 10","MullerLyer","1",50,"MullerLyer_-5.25714_0.18826",-5.25714,"Congruent",1,0.18826,"up",0,0.69
"S005","Illusion_Session1",2,40.5850666666667,"1920x947",1.81824,144.23,"firefox","106.0.0","Windows 10","MullerLyer","1",51,"MullerLyer_-5.25714_-0.18826",-5.25714,"Congruent",-1,0.18826,"down",0,0.559
"S005","Illusion_Session1",2,40.5850666666667,"1920x947",1.81824,144.23,"firefox","106.0.0","Windows 10","MullerLyer","1",52,"MullerLyer_17.08571_0.29056",17.08571,"Incongruent",1,0.29056,"up",0,0.897
"S005","Illusion_Session1",2,40.5850666666667,"1920x947",1.81824,144.23,"firefox","106.0.0","Windows 10","MullerLyer","1",53,"MullerLyer_17.08571_-0.29056",17.08571,"Incongruent",-1,0.29056,"down",0,0.916
"S005","Illusion_Session1",2,40.5850666666667,"1920x947",1.81824,144.23,"firefox","106.0.0","Windows 10","MullerLyer","1",54,"MullerLyer_5.25714_-0.18826",5.25714,"Incongruent",-1,0.18826,"down",0,0.658
"S005","Illusion_Session1",2,40.5850666666667,"1920x947",1.81824,144.23,"firefox","106.0.0","Windows 10","MullerLyer","1",55,"MullerLyer_-11.17143_0.05000",-11.17143,"Congruent",1,0.05,"up",0,0.846
"S005","Illusion_Session1",2,40.5850666666667,"1920x947",1.81824,144.23,"firefox","106.0.0","Windows 10","MullerLyer","1",56,"MullerLyer_17.08571_0.05000",17.08571,"Incongruent",1,0.05,"down",1,0.568
"S005","Illusion_Session1",2,40.5850666666667,"1920x947",1.81824,144.23,"firefox","106.0.0","Windows 10","MullerLyer","1",57,"MullerLyer_17.08571_-0.0500",17.08571,"Incongruent",-1,0.05,"up",1,0.844
"S005","Illusion_Session1",2,40.5850666666667,"1920x947",1.81824,144.23,"firefox","106.0.0","Windows 10","MullerLyer","1",58,"MullerLyer_5.25714_0.05000",5.25714,"Incongruent",1,0.05,"down",1,1.019
"S005","Illusion_Session1",2,40.5850666666667,"1920x947",1.81824,144.23,"firefox","106.0.0","Windows 10","MullerLyer","1",59,"MullerLyer_-11.17143_-0.18826",-11.17143,"Congruent",-1,0.18826,"down",0,0.584
"S005","Illusion_Session1",2,40.5850666666667,"1920x947",1.81824,144.23,"firefox","106.0.0","Windows 10","MullerLyer","1",60,"MullerLyer_-11.17143_-0.29056",-11.17143,"Congruent",-1,0.29056,"down",0,0.55
"S005","Illusion_Session1",2,40.5850666666667,"1920x947",1.81824,144.23,"firefox","106.0.0","Windows 10","MullerLyer","1",61,"MullerLyer_11.17143_0.29056",11.17143,"Incongruent",1,0.29056,"up",0,0.757
"S005","Illusion_Session1",2,40.5850666666667,"1920x947",1.81824,144.23,"firefox","106.0.0","Windows 10","MullerLyer","1",62,"MullerLyer_-17.08571_0.05000",-17.08571,"Congruent",1,0.05,"up",0,0.681
"S005","Illusion_Session1",2,40.5850666666667,"1920x947",1.81824,144.23,"firefox","106.0.0","Windows 10","MullerLyer","1",63,"MullerLyer_-5.25714_-0.0500",-5.25714,"Congruent",-1,0.05,"down",0,0.708
"S005","Illusion_Session1",2,40.5850666666667,"1920x947",1.81824,144.23,"firefox","106.0.0","Windows 10","MullerLyer","1",64,"MullerLyer_11.17143_-0.10808",11.17143,"Incongruent",-1,0.10808,"up",1,0.823
"S005","Illusion_Session1",2,40.5850666666667,"1920x947",1.81824,144.23,"firefox","106.0.0","Windows 10","MullerLyer","1",65,"MullerLyer_23.0000_0.18826",23,"Incongruent",1,0.18826,"down",1,1.25
"S005","Illusion_Session1",2,40.5850666666667,"1920x947",1.81824,144.23,"firefox","106.0.0","Windows 10","MullerLyer","1",66,"MullerLyer_-11.17143_0.10808",-11.17143,"Congruent",1,0.10808,"up",0,0.656
"S005","Illusion_Session1",2,40.5850666666667,"1920x947",1.81824,144.23,"firefox","106.0.0","Windows 10","MullerLyer","1",67,"MullerLyer_-5.25714_0.29056",-5.25714,"Congruent",1,0.29056,"up",0,0.609
"S005","Illusion_Session1",2,40.5850666666667,"1920x947",1.81824,144.23,"firefox","106.0.0","Windows 10","MullerLyer","1",68,"MullerLyer_-11.17143_-0.0500",-11.17143,"Congruent",-1,0.05,"down",0,0.543
"S005","Illusion_Session1",2,40.5850666666667,"1920x947",1.81824,144.23,"firefox","106.0.0","Windows 10","MullerLyer","1",69,"MullerLyer_17.08571_-0.18826",17.08571,"Incongruent",-1,0.18826,"up",1,1.011
"S005","Illusion_Session1",2,40.5850666666667,"1920x947",1.81824,144.23,"firefox","106.0.0","Windows 10","MullerLyer","1",70,"MullerLyer_-23.000_-0.29056",-23,"Congruent",-1,0.29056,"down",0,0.606
"S005","Illusion_Session1",2,40.5850666666667,"1920x947",1.81824,144.23,"firefox","106.0.0","Windows 10","MullerLyer","1",71,"MullerLyer_-17.08571_-0.0500",-17.08571,"Congruent",-1,0.05,"down",0,0.855
"S005","Illusion_Session1",2,40.5850666666667,"1920x947",1.81824,144.23,"firefox","106.0.0","Windows 10","MullerLyer","1",72,"MullerLyer_-11.17143_-0.10808",-11.17143,"Congruent",-1,0.10808,"down",0,0.657
"S005","Illusion_Session1",2,40.5850666666667,"1920x947",1.81824,144.23,"firefox","106.0.0","Windows 10","MullerLyer","1",73,"MullerLyer_11.17143_-0.18826",11.17143,"Incongruent",-1,0.18826,"down",0,1.437
"S005","Illusion_Session1",2,40.5850666666667,"1920x947",1.81824,144.23,"firefox","106.0.0","Windows 10","MullerLyer","1",74,"MullerLyer_-17.08571_-0.29056",-17.08571,"Congruent",-1,0.29056,"down",0,0.555
"S005","Illusion_Session1",2,40.5850666666667,"1920x947",1.81824,144.23,"firefox","106.0.0","Windows 10","MullerLyer","1",75,"MullerLyer_23.0000_0.05000",23,"Incongruent",1,0.05,"down",1,0.983
"S005","Illusion_Session1",2,40.5850666666667,"1920x947",1.81824,144.23,"firefox","106.0.0","Windows 10","MullerLyer","1",76,"MullerLyer_-17.08571_0.29056",-17.08571,"Congruent",1,0.29056,"up",0,0.575
"S005","Illusion_Session1",2,40.5850666666667,"1920x947",1.81824,144.23,"firefox","106.0.0","Windows 10","MullerLyer","1",77,"MullerLyer_5.25714_0.29056",5.25714,"Incongruent",1,0.29056,"up",0,0.721
"S005","Illusion_Session1",2,40.5850666666667,"1920x947",1.81824,144.23,"firefox","106.0.0","Windows 10","MullerLyer","1",78,"MullerLyer_-17.08571_-0.10808",-17.08571,"Congruent",-1,0.10808,"down",0,0.53
"S005","Illusion_Session1",2,40.5850666666667,"1920x947",1.81824,144.23,"firefox","106.0.0","Windows 10","MullerLyer","1",79,"MullerLyer_-17.08571_0.10808",-17.08571,"Congruent",1,0.10808,"up",0,1.105
"S005","Illusion_Session1",2,40.5850666666667,"1920x947",1.81824,144.23,"firefox","106.0.0","Windows 10","MullerLyer","1",80,"MullerLyer_5.25714_0.18826",5.25714,"Incongruent",1,0.18826,"up",0,0.897
"S005","Illusion_Session1",2,40.5850666666667,"1920x947",1.81824,144.23,"firefox","106.0.0","Windows 10","MullerLyer","1",81,"MullerLyer_11.17143_0.05000",11.17143,"Incongruent",1,0.05,"down",1,0.604
"S005","Illusion_Session1",2,40.5850666666667,"1920x947",1.81824,144.23,"firefox","106.0.0","Windows 10","MullerLyer","1",82,"MullerLyer_5.25714_0.10808",5.25714,"Incongruent",1,0.10808,"up",0,1.098
"S005","Illusion_Session1",2,40.5850666666667,"1920x947",1.81824,144.23,"firefox","106.0.0","Windows 10","Ebbinghaus","1",2,"Ebbinghaus_-0.48571_0.24643",-0.48571,"Congruent",1,0.24643,"left",0,0.942
"S005","Illusion_Session1",2,40.5850666666667,"1920x947",1.81824,144.23,"firefox","106.0.0","Windows 10","Ebbinghaus","1",3,"Ebbinghaus_-0.48571_0.13357",-0.48571,"Congruent",1,0.13357,"left",0,1.128
"S005","Illusion_Session1",2,40.5850666666667,"1920x947",1.81824,144.23,"firefox","106.0.0","Windows 10","Ebbinghaus","1",4,"Ebbinghaus_-0.48571_0.18571",-0.48571,"Congruent",1,0.18571,"left",0,1.012
"S005","Illusion_Session1",2,40.5850666666667,"1920x947",1.81824,144.23,"firefox","106.0.0","Windows 10","Ebbinghaus","1",5,"Ebbinghaus_1.00000_-0.13357",1,"Incongruent",-1,0.13357,"right",0,1.013
"S005","Illusion_Session1",2,40.5850666666667,"1920x947",1.81824,144.23,"firefox","106.0.0","Windows 10","Ebbinghaus","1",7,"Ebbinghaus_0.48571_-0.18571",0.48571,"Incongruent",-1,0.18571,"right",0,0.843
"S005","Illusion_Session1",2,40.5850666666667,"1920x947",1.81824,144.23,"firefox","106.0.0","Windows 10","Ebbinghaus","1",11,"Ebbinghaus_-0.74286_0.13357",-0.74286,"Congruent",1,0.13357,"left",0,1.281
"S005","Illusion_Session1",2,40.5850666666667,"1920x947",1.81824,144.23,"firefox","106.0.0","Windows 10","Ebbinghaus","1",12,"Ebbinghaus_0.48571_-0.0900",0.48571,"Incongruent",-1,0.09,"right",0,1.13
"S005","Illusion_Session1",2,40.5850666666667,"1920x947",1.81824,144.23,"firefox","106.0.0","Windows 10","Ebbinghaus","1",13,"Ebbinghaus_-1.0000_-0.13357",-1,"Congruent",-1,0.13357,"right",0,1.126
"S005","Illusion_Session1",2,40.5850666666667,"1920x947",1.81824,144.23,"firefox","106.0.0","Windows 10","Ebbinghaus","1",14,"Ebbinghaus_-0.22857_-0.18571",-0.22857,"Congruent",-1,0.18571,"right",0,1.362
"S005","Illusion_Session1",2,40.5850666666667,"1920x947",1.81824,144.23,"firefox","106.0.0","Windows 10","Ebbinghaus","1",15,"Ebbinghaus_0.22857_0.24643",0.22857,"Incongruent",1,0.24643,"left",0,0.805
"S005","Illusion_Session1",2,40.5850666666667,"1920x947",1.81824,144.23,"firefox","106.0.0","Windows 10","Ebbinghaus","1",16,"Ebbinghaus_0.74286_0.24643",0.74286,"Incongruent",1,0.24643,"left",0,0.887
"S005","Illusion_Session1",2,40.5850666666667,"1920x947",1.81824,144.23,"firefox","106.0.0","Windows 10","Ebbinghaus","1",17,"Ebbinghaus_0.22857_-0.24643",0.22857,"Incongruent",-1,0.24643,"right",0,0.882
"S005","Illusion_Session1",2,40.5850666666667,"1920x947",1.81824,144.23,"firefox","106.0.0","Windows 10","Ebbinghaus","1",18,"Ebbinghaus_-0.22857_-0.13357",-0.22857,"Congruent",-1,0.13357,"right",0,0.971
"S005","Illusion_Session1",2,40.5850666666667,"1920x947",1.81824,144.23,"firefox","106.0.0","Windows 10","Ebbinghaus","1",19,"Ebbinghaus_-0.74286_0.24643",-0.74286,"Congruent",1,0.24643,"left",0,1.154
"S005","Illusion_Session1",2,40.5850666666667,"1920x947",1.81824,144.23,"firefox","106.0.0","Windows 10","Ebbinghaus","1",20,"Ebbinghaus_0.48571_-0.13357",0.48571,"Incongruent",-1,0.13357,"right",0,1.509
"S005","Illusion_Session1",2,40.5850666666667,"1920x947",1.81824,144.23,"firefox","106.0.0","Windows 10","Ebbinghaus","1",22,"Ebbinghaus_-1.0000_0.09000",-1,"Congruent",1,0.09,"left",0,0.936
"S005","Illusion_Session1",2,40.5850666666667,"1920x947",1.81824,144.23,"firefox","106.0.0","Windows 10","Ebbinghaus","1",23,"Ebbinghaus_-0.48571_-0.24643",-0.48571,"Congruent",-1,0.24643,"right",0,0.646
"S005","Illusion_Session1",2,40.5850666666667,"1920x947",1.81824,144.23,"firefox","106.0.0","Windows 10","Ebbinghaus","1",24,"Ebbinghaus_-0.22857_0.18571",-0.22857,"Congruent",1,0.18571,"left",0,0.859
"S005","Illusion_Session1",2,40.5850666666667,"1920x947",1.81824,144.23,"firefox","106.0.0","Windows 10","Ebbinghaus","1",25,"Ebbinghaus_-0.22857_-0.24643",-0.22857,"Congruent",-1,0.24643,"right",0,0.753
"S005","Illusion_Session1",2,40.5850666666667,"1920x947",1.81824,144.23,"firefox","106.0.0","Windows 10","Ebbinghaus","1",26,"Ebbinghaus_-1.0000_-0.24643",-1,"Congruent",-1,0.24643,"right",0,0.994
"S005","Illusion_Session1",2,40.5850666666667,"1920x947",1.81824,144.23,"firefox","106.0.0","Windows 10","Ebbinghaus","1",27,"Ebbinghaus_-0.74286_-0.24643",-0.74286,"Congruent",-1,0.24643,"right",0,0.773
"S005","Illusion_Session1",2,40.5850666666667,"1920x947",1.81824,144.23,"firefox","106.0.0","Windows 10","Ebbinghaus","1",28,"Ebbinghaus_-0.48571_-0.13357",-0.48571,"Congruent",-1,0.13357,"right",0,0.879
"S005","Illusion_Session1",2,40.5850666666667,"1920x947",1.81824,144.23,"firefox","106.0.0","Windows 10","Ebbinghaus","1",29,"Ebbinghaus_-1.0000_-0.18571",-1,"Congruent",-1,0.18571,"right",0,1.034
"S005","Illusion_Session1",2,40.5850666666667,"1920x947",1.81824,144.23,"firefox","106.0.0","Windows 10","Ebbinghaus","1",30,"Ebbinghaus_-0.48571_0.09000",-0.48571,"Congruent",1,0.09,"left",0,0.83
"S005","Illusion_Session1",2,40.5850666666667,"1920x947",1.81824,144.23,"firefox","106.0.0","Windows 10","Ebbinghaus","1",31,"Ebbinghaus_-1.0000_0.18571",-1,"Congruent",1,0.18571,"left",0,0.762
"S005","Illusion_Session1",2,40.5850666666667,"1920x947",1.81824,144.23,"firefox","106.0.0","Windows 10","Ebbinghaus","1",32,"Ebbinghaus_-0.22857_0.09000",-0.22857,"Congruent",1,0.09,"left",0,1.01
"S005","Illusion_Session1",2,40.5850666666667,"1920x947",1.81824,144.23,"firefox","106.0.0","Windows 10","Ebbinghaus","1",34,"Ebbinghaus_-0.74286_-0.18571",-0.74286,"Congruent",-1,0.18571,"right",0,0.755
"S005","Illusion_Session1",2,40.5850666666667,"1920x947",1.81824,144.23,"firefox","106.0.0","Windows 10","Ebbinghaus","1",35,"Ebbinghaus_0.22857_-0.0900",0.22857,"Incongruent",-1,0.09,"left",1,0.983
"S005","Illusion_Session1",2,40.5850666666667,"1920x947",1.81824,144.23,"firefox","106.0.0","Windows 10","Ebbinghaus","1",36,"Ebbinghaus_-0.74286_0.09000",-0.74286,"Congruent",1,0.09,"left",0,0.833
"S005","Illusion_Session1",2,40.5850666666667,"1920x947",1.81824,144.23,"firefox","106.0.0","Windows 10","Ebbinghaus","1",37,"Ebbinghaus_-1.0000_0.24643",-1,"Congruent",1,0.24643,"left",0,0.842
"S005","Illusion_Session1",2,40.5850666666667,"1920x947",1.81824,144.23,"firefox","106.0.0","Windows 10","Ebbinghaus","1",39,"Ebbinghaus_0.74286_0.13357",0.74286,"Incongruent",1,0.13357,"left",0,0.896
"S005","Illusion_Session1",2,40.5850666666667,"1920x947",1.81824,144.23,"firefox","106.0.0","Windows 10","Ebbinghaus","1",41,"Ebbinghaus_-0.48571_-0.0900",-0.48571,"Congruent",-1,0.09,"right",0,0.956
"S005","Illusion_Session1",2,40.5850666666667,"1920x947",1.81824,144.23,"firefox","106.0.0","Windows 10","Ebbinghaus","1",42,"Ebbinghaus_0.22857_0.13357",0.22857,"Incongruent",1,0.13357,"left",0,1.115
"S005","Illusion_Session1",2,40.5850666666667,"1920x947",1.81824,144.23,"firefox","106.0.0","Windows 10","Ebbinghaus","1",44,"Ebbinghaus_-0.74286_-0.0900",-0.74286,"Congruent",-1,0.09,"right",0,0.926
"S005","Illusion_Session1",2,40.5850666666667,"1920x947",1.81824,144.23,"firefox","106.0.0","Windows 10","Ebbinghaus","1",45,"Ebbinghaus_0.48571_0.24643",0.48571,"Incongruent",1,0.24643,"left",0,0.796
"S005","Illusion_Session1",2,40.5850666666667,"1920x947",1.81824,144.23,"firefox","106.0.0","Windows 10","Ebbinghaus","1",46,"Ebbinghaus_1.00000_0.24643",1,"Incongruent",1,0.24643,"left",0,1.603
"S005","Illusion_Session1",2,40.5850666666667,"1920x947",1.81824,144.23,"firefox","106.0.0","Windows 10","Ebbinghaus","1",47,"Ebbinghaus_0.48571_0.13357",0.48571,"Incongruent",1,0.13357,"left",0,1.71
"S005","Illusion_Session1",2,40.5850666666667,"1920x947",1.81824,144.23,"firefox","106.0.0","Windows 10","Ebbinghaus","1",48,"Ebbinghaus_0.74286_-0.24643",0.74286,"Incongruent",-1,0.24643,"right",0,1.714
"S005","Illusion_Session1",2,40.5850666666667,"1920x947",1.81824,144.23,"firefox","106.0.0","Windows 10","Ebbinghaus","1",49,"Ebbinghaus_0.22857_-0.18571",0.22857,"Incongruent",-1,0.18571,"right",0,1.644
"S005","Illusion_Session1",2,40.5850666666667,"1920x947",1.81824,144.23,"firefox","106.0.0","Windows 10","Ebbinghaus","1",50,"Ebbinghaus_-0.74286_0.18571",-0.74286,"Congruent",1,0.18571,"left",0,0.927
"S005","Illusion_Session1",2,40.5850666666667,"1920x947",1.81824,144.23,"firefox","106.0.0","Windows 10","Ebbinghaus","1",51,"Ebbinghaus_1.00000_-0.18571",1,"Incongruent",-1,0.18571,"right",0,1.507
"S005","Illusion_Session1",2,40.5850666666667,"1920x947",1.81824,144.23,"firefox","106.0.0","Windows 10","Ebbinghaus","1",52,"Ebbinghaus_1.00000_0.09000",1,"Incongruent",1,0.09,"left",0,0.958
"S005","Illusion_Session1",2,40.5850666666667,"1920x947",1.81824,144.23,"firefox","106.0.0","Windows 10","Ebbinghaus","1",53,"Ebbinghaus_0.22857_-0.13357",0.22857,"Incongruent",-1,0.13357,"right",0,1.814
"S005","Illusion_Session1",2,40.5850666666667,"1920x947",1.81824,144.23,"firefox","106.0.0","Windows 10","Ebbinghaus","1",54,"Ebbinghaus_-0.48571_-0.18571",-0.48571,"Congruent",-1,0.18571,"right",0,1.023
"S005","Illusion_Session1",2,40.5850666666667,"1920x947",1.81824,144.23,"firefox","106.0.0","Windows 10","Ebbinghaus","1",55,"Ebbinghaus_-0.22857_0.24643",-0.22857,"Congruent",1,0.24643,"left",0,0.767
"S005","Illusion_Session1",2,40.5850666666667,"1920x947",1.81824,144.23,"firefox","106.0.0","Windows 10","Ebbinghaus","1",56,"Ebbinghaus_-0.22857_-0.0900",-0.22857,"Congruent",-1,0.09,"right",0,1.644
"S005","Illusion_Session1",2,40.5850666666667,"1920x947",1.81824,144.23,"firefox","106.0.0","Windows 10","Ebbinghaus","1",57,"Ebbinghaus_0.22857_0.18571",0.22857,"Incongruent",1,0.18571,"left",0,1.252
"S005","Illusion_Session1",2,40.5850666666667,"1920x947",1.81824,144.23,"firefox","106.0.0","Windows 10","Ebbinghaus","1",58,"Ebbinghaus_-0.74286_-0.13357",-0.74286,"Congruent",-1,0.13357,"right",0,1.001
"S005","Illusion_Session1",2,40.5850666666667,"1920x947",1.81824,144.23,"firefox","106.0.0","Windows 10","Ebbinghaus","1",59,"Ebbinghaus_-1.0000_-0.0900",-1,"Congruent",-1,0.09,"right",0,1.206
"S005","Illusion_Session1",2,40.5850666666667,"1920x947",1.81824,144.23,"firefox","106.0.0","Windows 10","Ebbinghaus","1",60,"Ebbinghaus_0.48571_0.18571",0.48571,"Incongruent",1,0.18571,"left",0,0.974
"S005","Illusion_Session1",2,40.5850666666667,"1920x947",1.81824,144.23,"firefox","106.0.0","Windows 10","Ebbinghaus","1",61,"Ebbinghaus_-0.22857_0.13357",-0.22857,"Congruent",1,0.13357,"left",0,0.835
"S005","Illusion_Session1",2,40.5850666666667,"1920x947",1.81824,144.23,"firefox","106.0.0","Windows 10","Ebbinghaus","1",62,"Ebbinghaus_0.74286_-0.18571",0.74286,"Incongruent",-1,0.18571,"right",0,1.668
"S005","Illusion_Session1",2,40.5850666666667,"1920x947",1.81824,144.23,"firefox","106.0.0","Windows 10","Ebbinghaus","1",64,"Ebbinghaus_-1.0000_0.13357",-1,"Congruent",1,0.13357,"left",0,0.944
"S005","Illusion_Session1",2,40.5850666666667,"1920x947",1.81824,144.23,"firefox","106.0.0","Windows 10","VerticalHorizontal","1",1,"VerticalHorizontal_-33.000_0.13460",-33,"Congruent",1,0.1346,"left",0,0.972
"S005","Illusion_Session1",2,40.5850666666667,"1920x947",1.81824,144.23,"firefox","106.0.0","Windows 10","VerticalHorizontal","1",2,"VerticalHorizontal_7.54286_-0.08717",7.54286,"Incongruent",-1,0.08717,"right",0,1.553
"S005","Illusion_Session1",2,40.5850666666667,"1920x947",1.81824,144.23,"firefox","106.0.0","Windows 10","VerticalHorizontal","1",4,"VerticalHorizontal_-24.51429_-0.08717",-24.51429,"Congruent",-1,0.08717,"right",0,0.775
"S005","Illusion_Session1",2,40.5850666666667,"1920x947",1.81824,144.23,"firefox","106.0.0","Windows 10","VerticalHorizontal","1",5,"VerticalHorizontal_-7.54286_-0.0500",-7.54286,"Congruent",-1,0.05,"right",0,1.093
"S005","Illusion_Session1",2,40.5850666666667,"1920x947",1.81824,144.23,"firefox","106.0.0","Windows 10","VerticalHorizontal","1",6,"VerticalHorizontal_-16.02857_0.05000",-16.02857,"Congruent",1,0.05,"left",0,0.952
"S005","Illusion_Session1",2,40.5850666666667,"1920x947",1.81824,144.23,"firefox","106.0.0","Windows 10","VerticalHorizontal","1",7,"VerticalHorizontal_24.51429_-0.1346",24.51429,"Incongruent",-1,0.1346,"right",0,1.409
"S005","Illusion_Session1",2,40.5850666666667,"1920x947",1.81824,144.23,"firefox","106.0.0","Windows 10","VerticalHorizontal","1",9,"VerticalHorizontal_-16.02857_-0.1346",-16.02857,"Congruent",-1,0.1346,"right",0,0.639
"S005","Illusion_Session1",2,40.5850666666667,"1920x947",1.81824,144.23,"firefox","106.0.0","Windows 10","VerticalHorizontal","1",10,"VerticalHorizontal_-24.51429_0.05000",-24.51429,"Congruent",1,0.05,"left",0,0.936
"S005","Illusion_Session1",2,40.5850666666667,"1920x947",1.81824,144.23,"firefox","106.0.0","Windows 10","VerticalHorizontal","1",11,"VerticalHorizontal_-33.000_-0.1346",-33,"Congruent",-1,0.1346,"right",0,0.685
"S005","Illusion_Session1",2,40.5850666666667,"1920x947",1.81824,144.23,"firefox","106.0.0","Windows 10","VerticalHorizontal","1",12,"VerticalHorizontal_-7.54286_-0.08717",-7.54286,"Congruent",-1,0.08717,"right",0,1.092
"S005","Illusion_Session1",2,40.5850666666667,"1920x947",1.81824,144.23,"firefox","106.0.0","Windows 10","VerticalHorizontal","1",13,"VerticalHorizontal_33.0000_0.05000",33,"Incongruent",1,0.05,"right",1,1.079
"S005","Illusion_Session1",2,40.5850666666667,"1920x947",1.81824,144.23,"firefox","106.0.0","Windows 10","VerticalHorizontal","1",14,"VerticalHorizontal_-16.02857_0.08717",-16.02857,"Congruent",1,0.08717,"left",0,0.851
"S005","Illusion_Session1",2,40.5850666666667,"1920x947",1.81824,144.23,"firefox","106.0.0","Windows 10","VerticalHorizontal","1",15,"VerticalHorizontal_16.02857_0.08717",16.02857,"Incongruent",1,0.08717,"left",0,1.097
"S005","Illusion_Session1",2,40.5850666666667,"1920x947",1.81824,144.23,"firefox","106.0.0","Windows 10","VerticalHorizontal","1",16,"VerticalHorizontal_16.02857_-0.1923",16.02857,"Incongruent",-1,0.1923,"right",0,0.885
"S005","Illusion_Session1",2,40.5850666666667,"1920x947",1.81824,144.23,"firefox","106.0.0","Windows 10","VerticalHorizontal","1",17,"VerticalHorizontal_24.51429_-0.1923",24.51429,"Incongruent",-1,0.1923,"right",0,0.815
"S005","Illusion_Session1",2,40.5850666666667,"1920x947",1.81824,144.23,"firefox","106.0.0","Windows 10","VerticalHorizontal","1",18,"VerticalHorizontal_16.02857_-0.0500",16.02857,"Incongruent",-1,0.05,"left",1,1.38
"S005","Illusion_Session1",2,40.5850666666667,"1920x947",1.81824,144.23,"firefox","106.0.0","Windows 10","VerticalHorizontal","1",20,"VerticalHorizontal_-33.000_-0.0500",-33,"Congruent",-1,0.05,"right",0,0.691
"S005","Illusion_Session1",2,40.5850666666667,"1920x947",1.81824,144.23,"firefox","106.0.0","Windows 10","VerticalHorizontal","1",21,"VerticalHorizontal_33.0000_0.13460",33,"Incongruent",1,0.1346,"left",0,1.096
"S005","Illusion_Session1",2,40.5850666666667,"1920x947",1.81824,144.23,"firefox","106.0.0","Windows 10","VerticalHorizontal","1",22,"VerticalHorizontal_-7.54286_0.08717",-7.54286,"Congruent",1,0.08717,"left",0,1.432
"S005","Illusion_Session1",2,40.5850666666667,"1920x947",1.81824,144.23,"firefox","106.0.0","Windows 10","VerticalHorizontal","1",23,"VerticalHorizontal_-24.51429_-0.1346",-24.51429,"Congruent",-1,0.1346,"right",0,0.568
"S005","Illusion_Session1",2,40.5850666666667,"1920x947",1.81824,144.23,"firefox","106.0.0","Windows 10","VerticalHorizontal","1",24,"VerticalHorizontal_24.51429_0.13460",24.51429,"Incongruent",1,0.1346,"left",0,0.928
"S005","Illusion_Session1",2,40.5850666666667,"1920x947",1.81824,144.23,"firefox","106.0.0","Windows 10","VerticalHorizontal","1",25,"VerticalHorizontal_-7.54286_-0.1346",-7.54286,"Congruent",-1,0.1346,"right",0,0.565
"S005","Illusion_Session1",2,40.5850666666667,"1920x947",1.81824,144.23,"firefox","106.0.0","Windows 10","VerticalHorizontal","1",26,"VerticalHorizontal_-24.51429_0.13460",-24.51429,"Congruent",1,0.1346,"left",0,0.658
"S005","Illusion_Session1",2,40.5850666666667,"1920x947",1.81824,144.23,"firefox","106.0.0","Windows 10","VerticalHorizontal","1",27,"VerticalHorizontal_-33.000_-0.08717",-33,"Congruent",-1,0.08717,"right",0,0.521
"S005","Illusion_Session1",2,40.5850666666667,"1920x947",1.81824,144.23,"firefox","106.0.0","Windows 10","VerticalHorizontal","1",28,"VerticalHorizontal_33.0000_-0.1923",33,"Incongruent",-1,0.1923,"right",0,0.727
"S005","Illusion_Session1",2,40.5850666666667,"1920x947",1.81824,144.23,"firefox","106.0.0","Windows 10","VerticalHorizontal","1",29,"VerticalHorizontal_-7.54286_0.19230",-7.54286,"Congruent",1,0.1923,"left",0,0.587
"S005","Illusion_Session1",2,40.5850666666667,"1920x947",1.81824,144.23,"firefox","106.0.0","Windows 10","VerticalHorizontal","1",30,"VerticalHorizontal_-24.51429_-0.0500",-24.51429,"Congruent",-1,0.05,"right",0,1.262
"S005","Illusion_Session1",2,40.5850666666667,"1920x947",1.81824,144.23,"firefox","106.0.0","Windows 10","VerticalHorizontal","1",31,"VerticalHorizontal_-33.000_0.19230",-33,"Congruent",1,0.1923,"left",0,0.641
"S005","Illusion_Session1",2,40.5850666666667,"1920x947",1.81824,144.23,"firefox","106.0.0","Windows 10","VerticalHorizontal","1",32,"VerticalHorizontal_33.0000_-0.08717",33,"Incongruent",-1,0.08717,"left",1,1.474
"S005","Illusion_Session1",2,40.5850666666667,"1920x947",1.81824,144.23,"firefox","106.0.0","Windows 10","VerticalHorizontal","1",33,"VerticalHorizontal_-16.02857_0.19230",-16.02857,"Congruent",1,0.1923,"left",0,0.605
"S005","Illusion_Session1",2,40.5850666666667,"1920x947",1.81824,144.23,"firefox","106.0.0","Windows 10","VerticalHorizontal","1",34,"VerticalHorizontal_-24.51429_0.08717",-24.51429,"Congruent",1,0.08717,"left",0,1.374
"S005","Illusion_Session1",2,40.5850666666667,"1920x947",1.81824,144.23,"firefox","106.0.0","Windows 10","VerticalHorizontal","1",36,"VerticalHorizontal_33.0000_-0.1346",33,"Incongruent",-1,0.1346,"right",0,1.265
"S005","Illusion_Session1",2,40.5850666666667,"1920x947",1.81824,144.23,"firefox","106.0.0","Windows 10","VerticalHorizontal","1",37,"VerticalHorizontal_-33.000_0.08717",-33,"Congruent",1,0.08717,"left",0,0.936
"S005","Illusion_Session1",2,40.5850666666667,"1920x947",1.81824,144.23,"firefox","106.0.0","Windows 10","VerticalHorizontal","1",38,"VerticalHorizontal_7.54286_0.13460",7.54286,"Incongruent",1,0.1346,"left",0,1.097
"S005","Illusion_Session1",2,40.5850666666667,"1920x947",1.81824,144.23,"firefox","106.0.0","Windows 10","VerticalHorizontal","1",39,"VerticalHorizontal_-7.54286_-0.1923",-7.54286,"Congruent",-1,0.1923,"right",0,0.6
"S005","Illusion_Session1",2,40.5850666666667,"1920x947",1.81824,144.23,"firefox","106.0.0","Windows 10","VerticalHorizontal","1",40,"VerticalHorizontal_16.02857_-0.08717",16.02857,"Incongruent",-1,0.08717,"right",0,1.471
"S005","Illusion_Session1",2,40.5850666666667,"1920x947",1.81824,144.23,"firefox","106.0.0","Windows 10","VerticalHorizontal","1",41,"VerticalHorizontal_-24.51429_-0.1923",-24.51429,"Congruent",-1,0.1923,"right",0,0.591
"S005","Illusion_Session1",2,40.5850666666667,"1920x947",1.81824,144.23,"firefox","106.0.0","Windows 10","VerticalHorizontal","1",42,"VerticalHorizontal_-16.02857_-0.0500",-16.02857,"Congruent",-1,0.05,"right",0,1.747
"S005","Illusion_Session1",2,40.5850666666667,"1920x947",1.81824,144.23,"firefox","106.0.0","Windows 10","VerticalHorizontal","1",43,"VerticalHorizontal_7.54286_-0.1346",7.54286,"Incongruent",-1,0.1346,"right",0,0.729
"S005","Illusion_Session1",2,40.5850666666667,"1920x947",1.81824,144.23,"firefox","106.0.0","Windows 10","VerticalHorizontal","1",44,"VerticalHorizontal_-16.02857_-0.08717",-16.02857,"Congruent",-1,0.08717,"right",0,0.631
"S005","Illusion_Session1",2,40.5850666666667,"1920x947",1.81824,144.23,"firefox","106.0.0","Windows 10","VerticalHorizontal","1",45,"VerticalHorizontal_-33.000_0.05000",-33,"Congruent",1,0.05,"left",0,0.821
"S005","Illusion_Session1",2,40.5850666666667,"1920x947",1.81824,144.23,"firefox","106.0.0","Windows 10","VerticalHorizontal","1",47,"VerticalHorizontal_16.02857_0.19230",16.02857,"Incongruent",1,0.1923,"left",0,0.597
"S005","Illusion_Session1",2,40.5850666666667,"1920x947",1.81824,144.23,"firefox","106.0.0","Windows 10","VerticalHorizontal","1",48,"VerticalHorizontal_24.51429_-0.08717",24.51429,"Incongruent",-1,0.08717,"right",0,1.819
"S005","Illusion_Session1",2,40.5850666666667,"1920x947",1.81824,144.23,"firefox","106.0.0","Windows 10","VerticalHorizontal","1",49,"VerticalHorizontal_-33.000_-0.1923",-33,"Congruent",-1,0.1923,"right",0,0.473
"S005","Illusion_Session1",2,40.5850666666667,"1920x947",1.81824,144.23,"firefox","106.0.0","Windows 10","VerticalHorizontal","1",50,"VerticalHorizontal_16.02857_0.13460",16.02857,"Incongruent",1,0.1346,"left",0,0.91
"S005","Illusion_Session1",2,40.5850666666667,"1920x947",1.81824,144.23,"firefox","106.0.0","Windows 10","VerticalHorizontal","1",51,"VerticalHorizontal_-7.54286_0.05000",-7.54286,"Congruent",1,0.05,"left",0,0.582
"S005","Illusion_Session1",2,40.5850666666667,"1920x947",1.81824,144.23,"firefox","106.0.0","Windows 10","VerticalHorizontal","1",52,"VerticalHorizontal_33.0000_0.19230",33,"Incongruent",1,0.1923,"left",0,0.962
"S005","Illusion_Session1",2,40.5850666666667,"1920x947",1.81824,144.23,"firefox","106.0.0","Windows 10","VerticalHorizontal","1",53,"VerticalHorizontal_7.54286_0.19230",7.54286,"Incongruent",1,0.1923,"left",0,0.673
"S005","Illusion_Session1",2,40.5850666666667,"1920x947",1.81824,144.23,"firefox","106.0.0","Windows 10","VerticalHorizontal","1",54,"VerticalHorizontal_24.51429_0.05000",24.51429,"Incongruent",1,0.05,"right",1,0.751
"S005","Illusion_Session1",2,40.5850666666667,"1920x947",1.81824,144.23,"firefox","106.0.0","Windows 10","VerticalHorizontal","1",55,"VerticalHorizontal_33.0000_0.08717",33,"Incongruent",1,0.08717,"left",0,1.037
"S005","Illusion_Session1",2,40.5850666666667,"1920x947",1.81824,144.23,"firefox","106.0.0","Windows 10","VerticalHorizontal","1",56,"VerticalHorizontal_7.54286_0.08717",7.54286,"Incongruent",1,0.08717,"left",0,0.657
"S005","Illusion_Session1",2,40.5850666666667,"1920x947",1.81824,144.23,"firefox","106.0.0","Windows 10","VerticalHorizontal","1",57,"VerticalHorizontal_7.54286_-0.1923",7.54286,"Incongruent",-1,0.1923,"right",0,0.576
"S005","Illusion_Session1",2,40.5850666666667,"1920x947",1.81824,144.23,"firefox","106.0.0","Windows 10","VerticalHorizontal","1",58,"VerticalHorizontal_16.02857_-0.1346",16.02857,"Incongruent",-1,0.1346,"right",0,0.665
"S005","Illusion_Session1",2,40.5850666666667,"1920x947",1.81824,144.23,"firefox","106.0.0","Windows 10","VerticalHorizontal","1",59,"VerticalHorizontal_-16.02857_-0.1923",-16.02857,"Congruent",-1,0.1923,"right",0,0.535
"S005","Illusion_Session1",2,40.5850666666667,"1920x947",1.81824,144.23,"firefox","106.0.0","Windows 10","VerticalHorizontal","1",60,"VerticalHorizontal_-16.02857_0.13460",-16.02857,"Congruent",1,0.1346,"left",0,0.562
"S005","Illusion_Session1",2,40.5850666666667,"1920x947",1.81824,144.23,"firefox","106.0.0","Windows 10","VerticalHorizontal","1",61,"VerticalHorizontal_-7.54286_0.13460",-7.54286,"Congruent",1,0.1346,"left",0,0.599
"S005","Illusion_Session1",2,40.5850666666667,"1920x947",1.81824,144.23,"firefox","106.0.0","Windows 10","VerticalHorizontal","1",62,"VerticalHorizontal_24.51429_0.19230",24.51429,"Incongruent",1,0.1923,"left",0,0.961
"S005","Illusion_Session1",2,40.5850666666667,"1920x947",1.81824,144.23,"firefox","106.0.0","Windows 10","VerticalHorizontal","1",63,"VerticalHorizontal_-24.51429_0.19230",-24.51429,"Congruent",1,0.1923,"left",0,0.576
"S005","Illusion_Session1",2,40.5850666666667,"1920x947",1.81824,144.23,"firefox","106.0.0","Windows 10","VerticalHorizontal","1",64,"VerticalHorizontal_16.02857_0.05000",16.02857,"Incongruent",1,0.05,"left",0,1.487
"S005","Illusion_Session1",2,40.5850666666667,"1920x947",1.81824,144.23,"firefox","106.0.0","Windows 10","MullerLyer","2",1,"MullerLyer_-8.21429_-0.3500",-8.21429,"Congruent",-1,0.35,"down",0,0.543
"S005","Illusion_Session1",2,40.5850666666667,"1920x947",1.81824,144.23,"firefox","106.0.0","Windows 10","MullerLyer","2",2,"MullerLyer_2.30000_0.23665",2.3,"Incongruent",1,0.23665,"up",0,0.549
"S005","Illusion_Session1",2,40.5850666666667,"1920x947",1.81824,144.23,"firefox","106.0.0","Windows 10","MullerLyer","2",3,"MullerLyer_-8.21429_0.07627",-8.21429,"Congruent",1,0.07627,"up",0,0.489
"S005","Illusion_Session1",2,40.5850666666667,"1920x947",1.81824,144.23,"firefox","106.0.0","Windows 10","MullerLyer","2",4,"MullerLyer_14.12857_-0.07627",14.12857,"Incongruent",-1,0.07627,"up",1,1.381
"S005","Illusion_Session1",2,40.5850666666667,"1920x947",1.81824,144.23,"firefox","106.0.0","Windows 10","MullerLyer","2",5,"MullerLyer_-14.12857_-0.07627",-14.12857,"Congruent",-1,0.07627,"down",0,0.531
"S005","Illusion_Session1",2,40.5850666666667,"1920x947",1.81824,144.23,"firefox","106.0.0","Windows 10","MullerLyer","2",6,"MullerLyer_14.12857_-0.3500",14.12857,"Incongruent",-1,0.35,"down",0,0.835
"S005","Illusion_Session1",2,40.5850666666667,"1920x947",1.81824,144.23,"firefox","106.0.0","Windows 10","MullerLyer","2",8,"MullerLyer_2.30000_-0.07627",2.3,"Incongruent",-1,0.07627,"down",0,0.883
"S005","Illusion_Session1",2,40.5850666666667,"1920x947",1.81824,144.23,"firefox","106.0.0","Windows 10","MullerLyer","2",9,"MullerLyer_14.12857_0.14541",14.12857,"Incongruent",1,0.14541,"down",1,1.201
"S005","Illusion_Session1",2,40.5850666666667,"1920x947",1.81824,144.23,"firefox","106.0.0","Windows 10","MullerLyer","2",10,"MullerLyer_-20.04286_-0.23665",-20.04286,"Congruent",-1,0.23665,"down",0,0.496
"S005","Illusion_Session1",2,40.5850666666667,"1920x947",1.81824,144.23,"firefox","106.0.0","Windows 10","MullerLyer","2",11,"MullerLyer_14.12857_0.23665",14.12857,"Incongruent",1,0.23665,"up",0,1.296
"S005","Illusion_Session1",2,40.5850666666667,"1920x947",1.81824,144.23,"firefox","106.0.0","Windows 10","MullerLyer","2",12,"MullerLyer_-14.12857_-0.14541",-14.12857,"Congruent",-1,0.14541,"down",0,0.572
"S005","Illusion_Session1",2,40.5850666666667,"1920x947",1.81824,144.23,"firefox","106.0.0","Windows 10","MullerLyer","2",13,"MullerLyer_-20.04286_0.23665",-20.04286,"Congruent",1,0.23665,"up",0,0.512
"S005","Illusion_Session1",2,40.5850666666667,"1920x947",1.81824,144.23,"firefox","106.0.0","Windows 10","MullerLyer","2",14,"MullerLyer_2.30000_0.35000",2.3,"Incongruent",1,0.35,"up",0,0.578
"S005","Illusion_Session1",2,40.5850666666667,"1920x947",1.81824,144.23,"firefox","106.0.0","Windows 10","MullerLyer","2",15,"MullerLyer_8.21429_-0.14541",8.21429,"Incongruent",-1,0.14541,"down",0,0.919
"S005","Illusion_Session1",2,40.5850666666667,"1920x947",1.81824,144.23,"firefox","106.0.0","Windows 10","MullerLyer","2",16,"MullerLyer_-14.12857_0.35000",-14.12857,"Congruent",1,0.35,"up",0,0.563
"S005","Illusion_Session1",2,40.5850666666667,"1920x947",1.81824,144.23,"firefox","106.0.0","Windows 10","MullerLyer","2",18,"MullerLyer_14.12857_0.07627",14.12857,"Incongruent",1,0.07627,"down",1,0.519
"S005","Illusion_Session1",2,40.5850666666667,"1920x947",1.81824,144.23,"firefox","106.0.0","Windows 10","MullerLyer","2",19,"MullerLyer_-14.12857_0.23665",-14.12857,"Congruent",1,0.23665,"up",0,0.519
"S005","Illusion_Session1",2,40.5850666666667,"1920x947",1.81824,144.23,"firefox","106.0.0","Windows 10","MullerLyer","2",20,"MullerLyer_-2.3000_0.23665",-2.3,"Congruent",1,0.23665,"up",0,0.512
"S005","Illusion_Session1",2,40.5850666666667,"1920x947",1.81824,144.23,"firefox","106.0.0","Windows 10","MullerLyer","2",21,"MullerLyer_2.30000_0.07627",2.3,"Incongruent",1,0.07627,"down",1,0.566
"S005","Illusion_Session1",2,40.5850666666667,"1920x947",1.81824,144.23,"firefox","106.0.0","Windows 10","MullerLyer","2",22,"MullerLyer_2.30000_-0.14541",2.3,"Incongruent",-1,0.14541,"down",0,0.526
"S005","Illusion_Session1",2,40.5850666666667,"1920x947",1.81824,144.23,"firefox","106.0.0","Windows 10","MullerLyer","2",23,"MullerLyer_14.12857_-0.14541",14.12857,"Incongruent",-1,0.14541,"down",0,1.059
"S005","Illusion_Session1",2,40.5850666666667,"1920x947",1.81824,144.23,"firefox","106.0.0","Windows 10","MullerLyer","2",24,"MullerLyer_-2.3000_-0.07627",-2.3,"Congruent",-1,0.07627,"down",0,0.518
"S005","Illusion_Session1",2,40.5850666666667,"1920x947",1.81824,144.23,"firefox","106.0.0","Windows 10","MullerLyer","2",25,"MullerLyer_20.04286_0.35000",20.04286,"Incongruent",1,0.35,"up",0,1.446
"S005","Illusion_Session1",2,40.5850666666667,"1920x947",1.81824,144.23,"firefox","106.0.0","Windows 10","MullerLyer","2",26,"MullerLyer_14.12857_0.35000",14.12857,"Incongruent",1,0.35,"up",0,0.95
"S005","Illusion_Session1",2,40.5850666666667,"1920x947",1.81824,144.23,"firefox","106.0.0","Windows 10","MullerLyer","2",27,"MullerLyer_2.30000_-0.23665",2.3,"Incongruent",-1,0.23665,"down",0,0.562
"S005","Illusion_Session1",2,40.5850666666667,"1920x947",1.81824,144.23,"firefox","106.0.0","Windows 10","MullerLyer","2",28,"MullerLyer_-2.3000_-0.23665",-2.3,"Congruent",-1,0.23665,"down",0,0.523
"S005","Illusion_Session1",2,40.5850666666667,"1920x947",1.81824,144.23,"firefox","106.0.0","Windows 10","MullerLyer","2",29,"MullerLyer_20.04286_-0.23665",20.04286,"Incongruent",-1,0.23665,"down",0,1.041
"S005","Illusion_Session1",2,40.5850666666667,"1920x947",1.81824,144.23,"firefox","106.0.0","Windows 10","MullerLyer","2",30,"MullerLyer_-14.12857_-0.23665",-14.12857,"Congruent",-1,0.23665,"down",0,0.527
"S005","Illusion_Session1",2,40.5850666666667,"1920x947",1.81824,144.23,"firefox","106.0.0","Windows 10","MullerLyer","2",31,"MullerLyer_-8.21429_0.14541",-8.21429,"Congruent",1,0.14541,"up",0,0.514
"S005","Illusion_Session1",2,40.5850666666667,"1920x947",1.81824,144.23,"firefox","106.0.0","Windows 10","MullerLyer","2",32,"MullerLyer_-2.3000_0.14541",-2.3,"Congruent",1,0.14541,"up",0,0.523
"S005","Illusion_Session1",2,40.5850666666667,"1920x947",1.81824,144.23,"firefox","106.0.0","Windows 10","MullerLyer","2",33,"MullerLyer_-2.3000_0.35000",-2.3,"Congruent",1,0.35,"up",0,0.514
"S005","Illusion_Session1",2,40.5850666666667,"1920x947",1.81824,144.23,"firefox","106.0.0","Windows 10","MullerLyer","2",34,"MullerLyer_-8.21429_-0.23665",-8.21429,"Congruent",-1,0.23665,"down",0,0.524
"S005","Illusion_Session1",2,40.5850666666667,"1920x947",1.81824,144.23,"firefox","106.0.0","Windows 10","MullerLyer","2",35,"MullerLyer_-20.04286_0.07627",-20.04286,"Congruent",1,0.07627,"up",0,0.508
"S005","Illusion_Session1",2,40.5850666666667,"1920x947",1.81824,144.23,"firefox","106.0.0","Windows 10","MullerLyer","2",36,"MullerLyer_-20.04286_-0.3500",-20.04286,"Congruent",-1,0.35,"down",0,0.433
"S005","Illusion_Session1",2,40.5850666666667,"1920x947",1.81824,144.23,"firefox","106.0.0","Windows 10","MullerLyer","2",37,"MullerLyer_20.04286_-0.3500",20.04286,"Incongruent",-1,0.35,"down",0,0.776
"S005","Illusion_Session1",2,40.5850666666667,"1920x947",1.81824,144.23,"firefox","106.0.0","Windows 10","MullerLyer","2",38,"MullerLyer_8.21429_0.23665",8.21429,"Incongruent",1,0.23665,"up",0,0.96
"S005","Illusion_Session1",2,40.5850666666667,"1920x947",1.81824,144.23,"firefox","106.0.0","Windows 10","MullerLyer","2",39,"MullerLyer_20.04286_-0.14541",20.04286,"Incongruent",-1,0.14541,"down",0,1.4
"S005","Illusion_Session1",2,40.5850666666667,"1920x947",1.81824,144.23,"firefox","106.0.0","Windows 10","MullerLyer","2",40,"MullerLyer_-14.12857_0.07627",-14.12857,"Congruent",1,0.07627,"up",0,0.689
"S005","Illusion_Session1",2,40.5850666666667,"1920x947",1.81824,144.23,"firefox","106.0.0","Windows 10","MullerLyer","2",41,"MullerLyer_-8.21429_-0.07627",-8.21429,"Congruent",-1,0.07627,"down",0,0.565
"S005","Illusion_Session1",2,40.5850666666667,"1920x947",1.81824,144.23,"firefox","106.0.0","Windows 10","MullerLyer","2",42,"MullerLyer_-20.04286_0.14541",-20.04286,"Congruent",1,0.14541,"up",0,0.593
"S005","Illusion_Session1",2,40.5850666666667,"1920x947",1.81824,144.23,"firefox","106.0.0","Windows 10","MullerLyer","2",43,"MullerLyer_20.04286_0.07627",20.04286,"Incongruent",1,0.07627,"down",1,0.518
"S005","Illusion_Session1",2,40.5850666666667,"1920x947",1.81824,144.23,"firefox","106.0.0","Windows 10","MullerLyer","2",44,"MullerLyer_2.30000_-0.3500",2.3,"Incongruent",-1,0.35,"down",0,0.497
"S005","Illusion_Session1",2,40.5850666666667,"1920x947",1.81824,144.23,"firefox","106.0.0","Windows 10","MullerLyer","2",45,"MullerLyer_-2.3000_-0.14541",-2.3,"Congruent",-1,0.14541,"down",0,0.745
"S005","Illusion_Session1",2,40.5850666666667,"1920x947",1.81824,144.23,"firefox","106.0.0","Windows 10","MullerLyer","2",46,"MullerLyer_8.21429_-0.23665",8.21429,"Incongruent",-1,0.23665,"down",0,0.589
"S005","Illusion_Session1",2,40.5850666666667,"1920x947",1.81824,144.23,"firefox","106.0.0","Windows 10","MullerLyer","2",47,"MullerLyer_-14.12857_0.14541",-14.12857,"Congruent",1,0.14541,"up",0,0.845
"S005","Illusion_Session1",2,40.5850666666667,"1920x947",1.81824,144.23,"firefox","106.0.0","Windows 10","MullerLyer","2",48,"MullerLyer_-8.21429_0.23665",-8.21429,"Congruent",1,0.23665,"up",0,0.54
"S005","Illusion_Session1",2,40.5850666666667,"1920x947",1.81824,144.23,"firefox","106.0.0","Windows 10","MullerLyer","2",49,"MullerLyer_20.04286_0.14541",20.04286,"Incongruent",1,0.14541,"down",1,0.848
"S005","Illusion_Session1",2,40.5850666666667,"1920x947",1.81824,144.23,"firefox","106.0.0","Windows 10","MullerLyer","2",50,"MullerLyer_-8.21429_-0.14541",-8.21429,"Congruent",-1,0.14541,"down",0,0.512
"S005","Illusion_Session1",2,40.5850666666667,"1920x947",1.81824,144.23,"firefox","106.0.0","Windows 10","MullerLyer","2",51,"MullerLyer_8.21429_0.35000",8.21429,"Incongruent",1,0.35,"up",0,0.841
"S005","Illusion_Session1",2,40.5850666666667,"1920x947",1.81824,144.23,"firefox","106.0.0","Windows 10","MullerLyer","2",52,"MullerLyer_-8.21429_0.35000",-8.21429,"Congruent",1,0.35,"up",0,0.566
"S005","Illusion_Session1",2,40.5850666666667,"1920x947",1.81824,144.23,"firefox","106.0.0","Windows 10","MullerLyer","2",53,"MullerLyer_8.21429_0.07627",8.21429,"Incongruent",1,0.07627,"down",1,0.791
"S005","Illusion_Session1",2,40.5850666666667,"1920x947",1.81824,144.23,"firefox","106.0.0","Windows 10","MullerLyer","2",54,"MullerLyer_20.04286_0.23665",20.04286,"Incongruent",1,0.23665,"down",1,0.527
"S005","Illusion_Session1",2,40.5850666666667,"1920x947",1.81824,144.23,"firefox","106.0.0","Windows 10","MullerLyer","2",55,"MullerLyer_2.30000_0.14541",2.3,"Incongruent",1,0.14541,"up",0,0.671
"S005","Illusion_Session1",2,40.5850666666667,"1920x947",1.81824,144.23,"firefox","106.0.0","Windows 10","MullerLyer","2",56,"MullerLyer_8.21429_-0.3500",8.21429,"Incongruent",-1,0.35,"down",0,0.554
"S005","Illusion_Session1",2,40.5850666666667,"1920x947",1.81824,144.23,"firefox","106.0.0","Windows 10","MullerLyer","2",57,"MullerLyer_-2.3000_-0.3500",-2.3,"Congruent",-1,0.35,"down",0,0.54
"S005","Illusion_Session1",2,40.5850666666667,"1920x947",1.81824,144.23,"firefox","106.0.0","Windows 10","MullerLyer","2",58,"MullerLyer_-14.12857_-0.3500",-14.12857,"Congruent",-1,0.35,"down",0,0.5
"S005","Illusion_Session1",2,40.5850666666667,"1920x947",1.81824,144.23,"firefox","106.0.0","Windows 10","MullerLyer","2",59,"MullerLyer_8.21429_0.14541",8.21429,"Incongruent",1,0.14541,"up",0,0.725
"S005","Illusion_Session1",2,40.5850666666667,"1920x947",1.81824,144.23,"firefox","106.0.0","Windows 10","MullerLyer","2",60,"MullerLyer_-20.04286_0.35000",-20.04286,"Congruent",1,0.35,"up",0,0.539
"S005","Illusion_Session1",2,40.5850666666667,"1920x947",1.81824,144.23,"firefox","106.0.0","Windows 10","MullerLyer","2",61,"MullerLyer_-20.04286_-0.07627",-20.04286,"Congruent",-1,0.07627,"down",0,0.473
"S005","Illusion_Session1",2,40.5850666666667,"1920x947",1.81824,144.23,"firefox","106.0.0","Windows 10","MullerLyer","2",62,"MullerLyer_-20.04286_-0.14541",-20.04286,"Congruent",-1,0.14541,"down",0,0.488
"S005","Illusion_Session1",2,40.5850666666667,"1920x947",1.81824,144.23,"firefox","106.0.0","Windows 10","MullerLyer","2",63,"MullerLyer_14.12857_-0.23665",14.12857,"Incongruent",-1,0.23665,"down",0,1.05
"S005","Illusion_Session1",2,40.5850666666667,"1920x947",1.81824,144.23,"firefox","106.0.0","Windows 10","MullerLyer","2",64,"MullerLyer_-2.3000_0.07627",-2.3,"Congruent",1,0.07627,"up",0,0.751
"S005","Illusion_Session1",2,40.5850666666667,"1920x947",1.81824,144.23,"firefox","106.0.0","Windows 10","Ebbinghaus","2",1,"Ebbinghaus_-0.87143_0.11071",-0.87143,"Congruent",1,0.11071,"left",0,0.715
"S005","Illusion_Session1",2,40.5850666666667,"1920x947",1.81824,144.23,"firefox","106.0.0","Windows 10","Ebbinghaus","2",2,"Ebbinghaus_-0.61429_0.28000",-0.61429,"Congruent",1,0.28,"left",0,0.561
"S005","Illusion_Session1",2,40.5850666666667,"1920x947",1.81824,144.23,"firefox","106.0.0","Windows 10","Ebbinghaus","2",3,"Ebbinghaus_0.10000_0.21500",0.1,"Incongruent",1,0.215,"left",0,0.715
"S005","Illusion_Session1",2,40.5850666666667,"1920x947",1.81824,144.23,"firefox","106.0.0","Windows 10","Ebbinghaus","2",4,"Ebbinghaus_0.10000_0.11071",0.1,"Incongruent",1,0.11071,"left",0,0.651
"S005","Illusion_Session1",2,40.5850666666667,"1920x947",1.81824,144.23,"firefox","106.0.0","Windows 10","Ebbinghaus","2",5,"Ebbinghaus_-0.61429_0.21500",-0.61429,"Congruent",1,0.215,"left",0,0.6
"S005","Illusion_Session1",2,40.5850666666667,"1920x947",1.81824,144.23,"firefox","106.0.0","Windows 10","Ebbinghaus","2",6,"Ebbinghaus_0.10000_-0.2800",0.1,"Incongruent",-1,0.28,"right",0,0.561
"S005","Illusion_Session1",2,40.5850666666667,"1920x947",1.81824,144.23,"firefox","106.0.0","Windows 10","Ebbinghaus","2",7,"Ebbinghaus_0.87143_0.28000",0.87143,"Incongruent",1,0.28,"left",0,0.525
"S005","Illusion_Session1",2,40.5850666666667,"1920x947",1.81824,144.23,"firefox","106.0.0","Windows 10","Ebbinghaus","2",8,"Ebbinghaus_0.35714_0.21500",0.35714,"Incongruent",1,0.215,"left",0,0.516
"S005","Illusion_Session1",2,40.5850666666667,"1920x947",1.81824,144.23,"firefox","106.0.0","Windows 10","Ebbinghaus","2",9,"Ebbinghaus_-0.35714_-0.2150",-0.35714,"Congruent",-1,0.215,"right",0,0.548
"S005","Illusion_Session1",2,40.5850666666667,"1920x947",1.81824,144.23,"firefox","106.0.0","Windows 10","Ebbinghaus","2",10,"Ebbinghaus_0.10000_-0.15857",0.1,"Incongruent",-1,0.15857,"right",0,0.546
"S005","Illusion_Session1",2,40.5850666666667,"1920x947",1.81824,144.23,"firefox","106.0.0","Windows 10","Ebbinghaus","2",11,"Ebbinghaus_0.10000_0.15857",0.1,"Incongruent",1,0.15857,"left",0,0.602
"S005","Illusion_Session1",2,40.5850666666667,"1920x947",1.81824,144.23,"firefox","106.0.0","Windows 10","Ebbinghaus","2",12,"Ebbinghaus_-0.35714_0.28000",-0.35714,"Congruent",1,0.28,"left",0,0.641
"S005","Illusion_Session1",2,40.5850666666667,"1920x947",1.81824,144.23,"firefox","106.0.0","Windows 10","Ebbinghaus","2",13,"Ebbinghaus_-0.35714_-0.2800",-0.35714,"Congruent",-1,0.28,"right",0,0.568
"S005","Illusion_Session1",2,40.5850666666667,"1920x947",1.81824,144.23,"firefox","106.0.0","Windows 10","Ebbinghaus","2",14,"Ebbinghaus_0.35714_-0.11071",0.35714,"Incongruent",-1,0.11071,"right",0,0.596
"S005","Illusion_Session1",2,40.5850666666667,"1920x947",1.81824,144.23,"firefox","106.0.0","Windows 10","Ebbinghaus","2",15,"Ebbinghaus_-0.1000_-0.2150",-0.1,"Congruent",-1,0.215,"right",0,0.756
"S005","Illusion_Session1",2,40.5850666666667,"1920x947",1.81824,144.23,"firefox","106.0.0","Windows 10","Ebbinghaus","2",16,"Ebbinghaus_0.87143_0.21500",0.87143,"Incongruent",1,0.215,"left",0,0.595
"S005","Illusion_Session1",2,40.5850666666667,"1920x947",1.81824,144.23,"firefox","106.0.0","Windows 10","Ebbinghaus","2",17,"Ebbinghaus_-0.87143_-0.11071",-0.87143,"Congruent",-1,0.11071,"right",0,0.805
"S005","Illusion_Session1",2,40.5850666666667,"1920x947",1.81824,144.23,"firefox","106.0.0","Windows 10","Ebbinghaus","2",18,"Ebbinghaus_-0.1000_0.21500",-0.1,"Congruent",1,0.215,"left",0,0.898
"S005","Illusion_Session1",2,40.5850666666667,"1920x947",1.81824,144.23,"firefox","106.0.0","Windows 10","Ebbinghaus","2",19,"Ebbinghaus_0.10000_-0.11071",0.1,"Incongruent",-1,0.11071,"right",0,1.115
"S005","Illusion_Session1",2,40.5850666666667,"1920x947",1.81824,144.23,"firefox","106.0.0","Windows 10","Ebbinghaus","2",20,"Ebbinghaus_-0.87143_0.15857",-0.87143,"Congruent",1,0.15857,"left",0,0.667
"S005","Illusion_Session1",2,40.5850666666667,"1920x947",1.81824,144.23,"firefox","106.0.0","Windows 10","Ebbinghaus","2",21,"Ebbinghaus_-0.1000_0.28000",-0.1,"Congruent",1,0.28,"left",0,0.613
"S005","Illusion_Session1",2,40.5850666666667,"1920x947",1.81824,144.23,"firefox","106.0.0","Windows 10","Ebbinghaus","2",22,"Ebbinghaus_0.61429_0.28000",0.61429,"Incongruent",1,0.28,"left",0,0.587
"S005","Illusion_Session1",2,40.5850666666667,"1920x947",1.81824,144.23,"firefox","106.0.0","Windows 10","Ebbinghaus","2",23,"Ebbinghaus_0.35714_-0.2800",0.35714,"Incongruent",-1,0.28,"right",0,0.581
"S005","Illusion_Session1",2,40.5850666666667,"1920x947",1.81824,144.23,"firefox","106.0.0","Windows 10","Ebbinghaus","2",24,"Ebbinghaus_0.87143_-0.11071",0.87143,"Incongruent",-1,0.11071,"left",1,0.967
"S005","Illusion_Session1",2,40.5850666666667,"1920x947",1.81824,144.23,"firefox","106.0.0","Windows 10","Ebbinghaus","2",25,"Ebbinghaus_-0.35714_0.21500",-0.35714,"Congruent",1,0.215,"left",0,0.629
"S005","Illusion_Session1",2,40.5850666666667,"1920x947",1.81824,144.23,"firefox","106.0.0","Windows 10","Ebbinghaus","2",26,"Ebbinghaus_-0.61429_0.15857",-0.61429,"Congruent",1,0.15857,"left",0,0.654
"S005","Illusion_Session1",2,40.5850666666667,"1920x947",1.81824,144.23,"firefox","106.0.0","Windows 10","Ebbinghaus","2",27,"Ebbinghaus_0.87143_0.15857",0.87143,"Incongruent",1,0.15857,"left",0,0.738
"S005","Illusion_Session1",2,40.5850666666667,"1920x947",1.81824,144.23,"firefox","106.0.0","Windows 10","Ebbinghaus","2",28,"Ebbinghaus_0.35714_0.11071",0.35714,"Incongruent",1,0.11071,"left",0,0.576
"S005","Illusion_Session1",2,40.5850666666667,"1920x947",1.81824,144.23,"firefox","106.0.0","Windows 10","Ebbinghaus","2",29,"Ebbinghaus_-0.35714_-0.11071",-0.35714,"Congruent",-1,0.11071,"right",0,1.051
"S005","Illusion_Session1",2,40.5850666666667,"1920x947",1.81824,144.23,"firefox","106.0.0","Windows 10","Ebbinghaus","2",30,"Ebbinghaus_-0.1000_-0.11071",-0.1,"Congruent",-1,0.11071,"right",0,0.965
"S005","Illusion_Session1",2,40.5850666666667,"1920x947",1.81824,144.23,"firefox","106.0.0","Windows 10","Ebbinghaus","2",31,"Ebbinghaus_-0.35714_0.11071",-0.35714,"Congruent",1,0.11071,"left",0,0.68
"S005","Illusion_Session1",2,40.5850666666667,"1920x947",1.81824,144.23,"firefox","106.0.0","Windows 10","Ebbinghaus","2",32,"Ebbinghaus_-0.1000_-0.2800",-0.1,"Congruent",-1,0.28,"right",0,0.552
"S005","Illusion_Session1",2,40.5850666666667,"1920x947",1.81824,144.23,"firefox","106.0.0","Windows 10","Ebbinghaus","2",33,"Ebbinghaus_-0.1000_0.11071",-0.1,"Congruent",1,0.11071,"left",0,0.673
"S005","Illusion_Session1",2,40.5850666666667,"1920x947",1.81824,144.23,"firefox","106.0.0","Windows 10","Ebbinghaus","2",34,"Ebbinghaus_-0.87143_-0.2800",-0.87143,"Congruent",-1,0.28,"right",0,0.58
"S005","Illusion_Session1",2,40.5850666666667,"1920x947",1.81824,144.23,"firefox","106.0.0","Windows 10","Ebbinghaus","2",35,"Ebbinghaus_0.61429_-0.11071",0.61429,"Incongruent",-1,0.11071,"left",1,0.856
"S005","Illusion_Session1",2,40.5850666666667,"1920x947",1.81824,144.23,"firefox","106.0.0","Windows 10","Ebbinghaus","2",36,"Ebbinghaus_0.61429_-0.2800",0.61429,"Incongruent",-1,0.28,"right",0,0.657
"S005","Illusion_Session1",2,40.5850666666667,"1920x947",1.81824,144.23,"firefox","106.0.0","Windows 10","Ebbinghaus","2",37,"Ebbinghaus_-0.87143_-0.15857",-0.87143,"Congruent",-1,0.15857,"right",0,0.626
"S005","Illusion_Session1",2,40.5850666666667,"1920x947",1.81824,144.23,"firefox","106.0.0","Windows 10","Ebbinghaus","2",38,"Ebbinghaus_-0.87143_0.28000",-0.87143,"Congruent",1,0.28,"left",0,0.636
"S005","Illusion_Session1",2,40.5850666666667,"1920x947",1.81824,144.23,"firefox","106.0.0","Windows 10","Ebbinghaus","2",39,"Ebbinghaus_0.35714_0.15857",0.35714,"Incongruent",1,0.15857,"left",0,0.551
"S005","Illusion_Session1",2,40.5850666666667,"1920x947",1.81824,144.23,"firefox","106.0.0","Windows 10","Ebbinghaus","2",40,"Ebbinghaus_0.61429_0.11071",0.61429,"Incongruent",1,0.11071,"left",0,0.761
"S005","Illusion_Session1",2,40.5850666666667,"1920x947",1.81824,144.23,"firefox","106.0.0","Windows 10","Ebbinghaus","2",41,"Ebbinghaus_-0.61429_0.11071",-0.61429,"Congruent",1,0.11071,"left",0,0.745
"S005","Illusion_Session1",2,40.5850666666667,"1920x947",1.81824,144.23,"firefox","106.0.0","Windows 10","Ebbinghaus","2",42,"Ebbinghaus_-0.87143_-0.2150",-0.87143,"Congruent",-1,0.215,"right",0,0.579
"S005","Illusion_Session1",2,40.5850666666667,"1920x947",1.81824,144.23,"firefox","106.0.0","Windows 10","Ebbinghaus","2",43,"Ebbinghaus_0.61429_-0.15857",0.61429,"Incongruent",-1,0.15857,"right",0,1.301
"S005","Illusion_Session1",2,40.5850666666667,"1920x947",1.81824,144.23,"firefox","106.0.0","Windows 10","Ebbinghaus","2",44,"Ebbinghaus_0.35714_-0.15857",0.35714,"Incongruent",-1,0.15857,"right",0,0.606
"S005","Illusion_Session1",2,40.5850666666667,"1920x947",1.81824,144.23,"firefox","106.0.0","Windows 10","Ebbinghaus","2",45,"Ebbinghaus_0.87143_-0.2150",0.87143,"Incongruent",-1,0.215,"left",1,1.26
"S005","Illusion_Session1",2,40.5850666666667,"1920x947",1.81824,144.23,"firefox","106.0.0","Windows 10","Ebbinghaus","2",46,"Ebbinghaus_0.61429_0.15857",0.61429,"Incongruent",1,0.15857,"left",0,0.591
"S005","Illusion_Session1",2,40.5850666666667,"1920x947",1.81824,144.23,"firefox","106.0.0","Windows 10","Ebbinghaus","2",47,"Ebbinghaus_-0.35714_-0.15857",-0.35714,"Congruent",-1,0.15857,"right",0,0.868
"S005","Illusion_Session1",2,40.5850666666667,"1920x947",1.81824,144.23,"firefox","106.0.0","Windows 10","Ebbinghaus","2",48,"Ebbinghaus_0.87143_-0.15857",0.87143,"Incongruent",-1,0.15857,"left",1,0.905
"S005","Illusion_Session1",2,40.5850666666667,"1920x947",1.81824,144.23,"firefox","106.0.0","Windows 10","Ebbinghaus","2",49,"Ebbinghaus_-0.1000_0.15857",-0.1,"Congruent",1,0.15857,"left",0,0.593
"S005","Illusion_Session1",2,40.5850666666667,"1920x947",1.81824,144.23,"firefox","106.0.0","Windows 10","Ebbinghaus","2",50,"Ebbinghaus_0.10000_0.28000",0.1,"Incongruent",1,0.28,"left",0,0.6
"S005","Illusion_Session1",2,40.5850666666667,"1920x947",1.81824,144.23,"firefox","106.0.0","Windows 10","Ebbinghaus","2",51,"Ebbinghaus_0.87143_-0.2800",0.87143,"Incongruent",-1,0.28,"right",0,0.497
"S005","Illusion_Session1",2,40.5850666666667,"1920x947",1.81824,144.23,"firefox","106.0.0","Windows 10","Ebbinghaus","2",52,"Ebbinghaus_0.61429_-0.2150",0.61429,"Incongruent",-1,0.215,"right",0,0.561
"S005","Illusion_Session1",2,40.5850666666667,"1920x947",1.81824,144.23,"firefox","106.0.0","Windows 10","Ebbinghaus","2",53,"Ebbinghaus_-0.61429_-0.2800",-0.61429,"Congruent",-1,0.28,"right",0,0.611
"S005","Illusion_Session1",2,40.5850666666667,"1920x947",1.81824,144.23,"firefox","106.0.0","Windows 10","Ebbinghaus","2",54,"Ebbinghaus_-0.35714_0.15857",-0.35714,"Congruent",1,0.15857,"left",0,0.595
"S005","Illusion_Session1",2,40.5850666666667,"1920x947",1.81824,144.23,"firefox","106.0.0","Windows 10","Ebbinghaus","2",55,"Ebbinghaus_-0.61429_-0.11071",-0.61429,"Congruent",-1,0.11071,"right",0,0.601
"S005","Illusion_Session1",2,40.5850666666667,"1920x947",1.81824,144.23,"firefox","106.0.0","Windows 10","Ebbinghaus","2",56,"Ebbinghaus_0.35714_0.28000",0.35714,"Incongruent",1,0.28,"left",0,0.582
"S005","Illusion_Session1",2,40.5850666666667,"1920x947",1.81824,144.23,"firefox","106.0.0","Windows 10","Ebbinghaus","2",57,"Ebbinghaus_0.61429_0.21500",0.61429,"Incongruent",1,0.215,"left",0,0.543
"S005","Illusion_Session1",2,40.5850666666667,"1920x947",1.81824,144.23,"firefox","106.0.0","Windows 10","Ebbinghaus","2",58,"Ebbinghaus_-0.61429_-0.15857",-0.61429,"Congruent",-1,0.15857,"right",0,0.622
"S005","Illusion_Session1",2,40.5850666666667,"1920x947",1.81824,144.23,"firefox","106.0.0","Windows 10","Ebbinghaus","2",59,"Ebbinghaus_0.10000_-0.2150",0.1,"Incongruent",-1,0.215,"right",0,0.598
"S005","Illusion_Session1",2,40.5850666666667,"1920x947",1.81824,144.23,"firefox","106.0.0","Windows 10","Ebbinghaus","2",60,"Ebbinghaus_-0.87143_0.21500",-0.87143,"Congruent",1,0.215,"left",0,0.739
"S005","Illusion_Session1",2,40.5850666666667,"1920x947",1.81824,144.23,"firefox","106.0.0","Windows 10","Ebbinghaus","2",61,"Ebbinghaus_0.35714_-0.2150",0.35714,"Incongruent",-1,0.215,"right",0,0.545
"S005","Illusion_Session1",2,40.5850666666667,"1920x947",1.81824,144.23,"firefox","106.0.0","Windows 10","Ebbinghaus","2",62,"Ebbinghaus_0.87143_0.11071",0.87143,"Incongruent",1,0.11071,"left",0,0.57
"S005","Illusion_Session1",2,40.5850666666667,"1920x947",1.81824,144.23,"firefox","106.0.0","Windows 10","Ebbinghaus","2",63,"Ebbinghaus_-0.61429_-0.2150",-0.61429,"Congruent",-1,0.215,"right",0,0.624
"S005","Illusion_Session1",2,40.5850666666667,"1920x947",1.81824,144.23,"firefox","106.0.0","Windows 10","Ebbinghaus","2",64,"Ebbinghaus_-0.1000_-0.15857",-0.1,"Congruent",-1,0.15857,"right",0,0.733
"S005","Illusion_Session1",2,40.5850666666667,"1920x947",1.81824,144.23,"firefox","106.0.0","Windows 10","VerticalHorizontal","2",1,"VerticalHorizontal_-20.27143_-0.2250",-20.27143,"Congruent",-1,0.225,"right",0,0.506
"S005","Illusion_Session1",2,40.5850666666667,"1920x947",1.81824,144.23,"firefox","106.0.0","Windows 10","VerticalHorizontal","2",2,"VerticalHorizontal_20.27143_-0.2250",20.27143,"Incongruent",-1,0.225,"right",0,0.856
"S005","Illusion_Session1",2,40.5850666666667,"1920x947",1.81824,144.23,"firefox","106.0.0","Windows 10","VerticalHorizontal","2",3,"VerticalHorizontal_-28.75714_-0.0673",-28.75714,"Congruent",-1,0.0673,"right",0,0.665
"S005","Illusion_Session1",2,40.5850666666667,"1920x947",1.81824,144.23,"firefox","106.0.0","Windows 10","VerticalHorizontal","2",4,"VerticalHorizontal_20.27143_0.22500",20.27143,"Incongruent",1,0.225,"left",0,0.764
"S005","Illusion_Session1",2,40.5850666666667,"1920x947",1.81824,144.23,"firefox","106.0.0","Windows 10","VerticalHorizontal","2",5,"VerticalHorizontal_28.75714_-0.16217",28.75714,"Incongruent",-1,0.16217,"right",0,1.259
"S005","Illusion_Session1",2,40.5850666666667,"1920x947",1.81824,144.23,"firefox","106.0.0","Windows 10","VerticalHorizontal","2",6,"VerticalHorizontal_20.27143_0.16217",20.27143,"Incongruent",1,0.16217,"left",0,0.696
"S005","Illusion_Session1",2,40.5850666666667,"1920x947",1.81824,144.23,"firefox","106.0.0","Windows 10","VerticalHorizontal","2",7,"VerticalHorizontal_-20.27143_0.06730",-20.27143,"Congruent",1,0.0673,"left",0,0.643
"S005","Illusion_Session1",2,40.5850666666667,"1920x947",1.81824,144.23,"firefox","106.0.0","Windows 10","VerticalHorizontal","2",8,"VerticalHorizontal_28.75714_-0.1096",28.75714,"Incongruent",-1,0.1096,"left",1,0.802
"S005","Illusion_Session1",2,40.5850666666667,"1920x947",1.81824,144.23,"firefox","106.0.0","Windows 10","VerticalHorizontal","2",9,"VerticalHorizontal_-11.78571_0.06730",-11.78571,"Congruent",1,0.0673,"left",0,0.538
"S005","Illusion_Session1",2,40.5850666666667,"1920x947",1.81824,144.23,"firefox","106.0.0","Windows 10","VerticalHorizontal","2",10,"VerticalHorizontal_11.78571_-0.16217",11.78571,"Incongruent",-1,0.16217,"right",0,0.536
"S005","Illusion_Session1",2,40.5850666666667,"1920x947",1.81824,144.23,"firefox","106.0.0","Windows 10","VerticalHorizontal","2",11,"VerticalHorizontal_-28.75714_-0.1096",-28.75714,"Congruent",-1,0.1096,"right",0,0.473
"S005","Illusion_Session1",2,40.5850666666667,"1920x947",1.81824,144.23,"firefox","106.0.0","Windows 10","VerticalHorizontal","2",12,"VerticalHorizontal_3.30000_0.06730",3.3,"Incongruent",1,0.0673,"left",0,0.451
"S005","Illusion_Session1",2,40.5850666666667,"1920x947",1.81824,144.23,"firefox","106.0.0","Windows 10","VerticalHorizontal","2",13,"VerticalHorizontal_-28.75714_-0.16217",-28.75714,"Congruent",-1,0.16217,"right",0,0.483
"S005","Illusion_Session1",2,40.5850666666667,"1920x947",1.81824,144.23,"firefox","106.0.0","Windows 10","VerticalHorizontal","2",14,"VerticalHorizontal_20.27143_-0.16217",20.27143,"Incongruent",-1,0.16217,"left",1,0.781
"S005","Illusion_Session1",2,40.5850666666667,"1920x947",1.81824,144.23,"firefox","106.0.0","Windows 10","VerticalHorizontal","2",15,"VerticalHorizontal_3.30000_-0.2250",3.3,"Incongruent",-1,0.225,"right",0,0.524
"S005","Illusion_Session1",2,40.5850666666667,"1920x947",1.81824,144.23,"firefox","106.0.0","Windows 10","VerticalHorizontal","2",16,"VerticalHorizontal_-28.75714_0.10960",-28.75714,"Congruent",1,0.1096,"left",0,0.54
"S005","Illusion_Session1",2,40.5850666666667,"1920x947",1.81824,144.23,"firefox","106.0.0","Windows 10","VerticalHorizontal","2",17,"VerticalHorizontal_20.27143_0.06730",20.27143,"Incongruent",1,0.0673,"left",0,0.811
"S005","Illusion_Session1",2,40.5850666666667,"1920x947",1.81824,144.23,"firefox","106.0.0","Windows 10","VerticalHorizontal","2",18,"VerticalHorizontal_28.75714_0.06730",28.75714,"Incongruent",1,0.0673,"right",1,0.792
"S005","Illusion_Session1",2,40.5850666666667,"1920x947",1.81824,144.23,"firefox","106.0.0","Windows 10","VerticalHorizontal","2",19,"VerticalHorizontal_-20.27143_-0.16217",-20.27143,"Congruent",-1,0.16217,"right",0,0.497
"S005","Illusion_Session1",2,40.5850666666667,"1920x947",1.81824,144.23,"firefox","106.0.0","Windows 10","VerticalHorizontal","2",20,"VerticalHorizontal_-3.3000_-0.16217",-3.3,"Congruent",-1,0.16217,"right",0,0.483
"S005","Illusion_Session1",2,40.5850666666667,"1920x947",1.81824,144.23,"firefox","106.0.0","Windows 10","VerticalHorizontal","2",21,"VerticalHorizontal_-28.75714_0.16217",-28.75714,"Congruent",1,0.16217,"left",0,0.46
"S005","Illusion_Session1",2,40.5850666666667,"1920x947",1.81824,144.23,"firefox","106.0.0","Windows 10","VerticalHorizontal","2",22,"VerticalHorizontal_-11.78571_0.22500",-11.78571,"Congruent",1,0.225,"left",0,0.426
"S005","Illusion_Session1",2,40.5850666666667,"1920x947",1.81824,144.23,"firefox","106.0.0","Windows 10","VerticalHorizontal","2",23,"VerticalHorizontal_-11.78571_-0.0673",-11.78571,"Congruent",-1,0.0673,"right",0,0.483
"S005","Illusion_Session1",2,40.5850666666667,"1920x947",1.81824,144.23,"firefox","106.0.0","Windows 10","VerticalHorizontal","2",24,"VerticalHorizontal_-28.75714_-0.2250",-28.75714,"Congruent",-1,0.225,"right",0,0.425
"S005","Illusion_Session1",2,40.5850666666667,"1920x947",1.81824,144.23,"firefox","106.0.0","Windows 10","VerticalHorizontal","2",25,"VerticalHorizontal_-3.3000_-0.2250",-3.3,"Congruent",-1,0.225,"right",0,0.504
"S005","Illusion_Session1",2,40.5850666666667,"1920x947",1.81824,144.23,"firefox","106.0.0","Windows 10","VerticalHorizontal","2",26,"VerticalHorizontal_-3.3000_0.16217",-3.3,"Congruent",1,0.16217,"left",0,0.473
"S005","Illusion_Session1",2,40.5850666666667,"1920x947",1.81824,144.23,"firefox","106.0.0","Windows 10","VerticalHorizontal","2",27,"VerticalHorizontal_-11.78571_-0.16217",-11.78571,"Congruent",-1,0.16217,"right",0,0.513
"S005","Illusion_Session1",2,40.5850666666667,"1920x947",1.81824,144.23,"firefox","106.0.0","Windows 10","VerticalHorizontal","2",28,"VerticalHorizontal_-11.78571_0.10960",-11.78571,"Congruent",1,0.1096,"left",0,0.442
"S005","Illusion_Session1",2,40.5850666666667,"1920x947",1.81824,144.23,"firefox","106.0.0","Windows 10","VerticalHorizontal","2",29,"VerticalHorizontal_-3.3000_0.06730",-3.3,"Congruent",1,0.0673,"left",0,0.629
"S005","Illusion_Session1",2,40.5850666666667,"1920x947",1.81824,144.23,"firefox","106.0.0","Windows 10","VerticalHorizontal","2",30,"VerticalHorizontal_28.75714_-0.2250",28.75714,"Incongruent",-1,0.225,"right",0,0.876
"S005","Illusion_Session1",2,40.5850666666667,"1920x947",1.81824,144.23,"firefox","106.0.0","Windows 10","VerticalHorizontal","2",31,"VerticalHorizontal_-11.78571_-0.2250",-11.78571,"Congruent",-1,0.225,"right",0,0.431
"S005","Illusion_Session1",2,40.5850666666667,"1920x947",1.81824,144.23,"firefox","106.0.0","Windows 10","VerticalHorizontal","2",32,"VerticalHorizontal_20.27143_-0.1096",20.27143,"Incongruent",-1,0.1096,"right",0,0.729
"S005","Illusion_Session1",2,40.5850666666667,"1920x947",1.81824,144.23,"firefox","106.0.0","Windows 10","VerticalHorizontal","2",33,"VerticalHorizontal_-20.27143_-0.1096",-20.27143,"Congruent",-1,0.1096,"right",0,0.578
"S005","Illusion_Session1",2,40.5850666666667,"1920x947",1.81824,144.23,"firefox","106.0.0","Windows 10","VerticalHorizontal","2",34,"VerticalHorizontal_11.78571_-0.0673",11.78571,"Incongruent",-1,0.0673,"right",0,1.271
"S005","Illusion_Session1",2,40.5850666666667,"1920x947",1.81824,144.23,"firefox","106.0.0","Windows 10","VerticalHorizontal","2",35,"VerticalHorizontal_28.75714_-0.0673",28.75714,"Incongruent",-1,0.0673,"left",1,0.445
"S005","Illusion_Session1",2,40.5850666666667,"1920x947",1.81824,144.23,"firefox","106.0.0","Windows 10","VerticalHorizontal","2",36,"VerticalHorizontal_-20.27143_-0.0673",-20.27143,"Congruent",-1,0.0673,"right",0,0.437
"S005","Illusion_Session1",2,40.5850666666667,"1920x947",1.81824,144.23,"firefox","106.0.0","Windows 10","VerticalHorizontal","2",37,"VerticalHorizontal_3.30000_0.16217",3.3,"Incongruent",1,0.16217,"left",0,0.491
"S005","Illusion_Session1",2,40.5850666666667,"1920x947",1.81824,144.23,"firefox","106.0.0","Windows 10","VerticalHorizontal","2",38,"VerticalHorizontal_-3.3000_-0.0673",-3.3,"Congruent",-1,0.0673,"left",1,0.57
"S005","Illusion_Session1",2,40.5850666666667,"1920x947",1.81824,144.23,"firefox","106.0.0","Windows 10","VerticalHorizontal","2",39,"VerticalHorizontal_28.75714_0.16217",28.75714,"Incongruent",1,0.16217,"left",0,0.847
"S005","Illusion_Session1",2,40.5850666666667,"1920x947",1.81824,144.23,"firefox","106.0.0","Windows 10","VerticalHorizontal","2",40,"VerticalHorizontal_-11.78571_-0.1096",-11.78571,"Congruent",-1,0.1096,"right",0,0.555
"S005","Illusion_Session1",2,40.5850666666667,"1920x947",1.81824,144.23,"firefox","106.0.0","Windows 10","VerticalHorizontal","2",41,"VerticalHorizontal_3.30000_-0.0673",3.3,"Incongruent",-1,0.0673,"left",1,1.016
"S005","Illusion_Session1",2,40.5850666666667,"1920x947",1.81824,144.23,"firefox","106.0.0","Windows 10","VerticalHorizontal","2",42,"VerticalHorizontal_-20.27143_0.10960",-20.27143,"Congruent",1,0.1096,"left",0,0.517
"S005","Illusion_Session1",2,40.5850666666667,"1920x947",1.81824,144.23,"firefox","106.0.0","Windows 10","VerticalHorizontal","2",43,"VerticalHorizontal_-28.75714_0.22500",-28.75714,"Congruent",1,0.225,"left",0,0.469
"S005","Illusion_Session1",2,40.5850666666667,"1920x947",1.81824,144.23,"firefox","106.0.0","Windows 10","VerticalHorizontal","2",44,"VerticalHorizontal_11.78571_-0.1096",11.78571,"Incongruent",-1,0.1096,"right",0,0.921
"S005","Illusion_Session1",2,40.5850666666667,"1920x947",1.81824,144.23,"firefox","106.0.0","Windows 10","VerticalHorizontal","2",45,"VerticalHorizontal_-28.75714_0.06730",-28.75714,"Congruent",1,0.0673,"left",0,0.482
"S005","Illusion_Session1",2,40.5850666666667,"1920x947",1.81824,144.23,"firefox","106.0.0","Windows 10","VerticalHorizontal","2",46,"VerticalHorizontal_-3.3000_0.10960",-3.3,"Congruent",1,0.1096,"left",0,0.65
"S005","Illusion_Session1",2,40.5850666666667,"1920x947",1.81824,144.23,"firefox","106.0.0","Windows 10","VerticalHorizontal","2",47,"VerticalHorizontal_-11.78571_0.16217",-11.78571,"Congruent",1,0.16217,"left",0,0.577
"S005","Illusion_Session1",2,40.5850666666667,"1920x947",1.81824,144.23,"firefox","106.0.0","Windows 10","VerticalHorizontal","2",48,"VerticalHorizontal_-20.27143_0.22500",-20.27143,"Congruent",1,0.225,"left",0,0.488
"S005","Illusion_Session1",2,40.5850666666667,"1920x947",1.81824,144.23,"firefox","106.0.0","Windows 10","VerticalHorizontal","2",49,"VerticalHorizontal_11.78571_0.22500",11.78571,"Incongruent",1,0.225,"left",0,0.594
"S005","Illusion_Session1",2,40.5850666666667,"1920x947",1.81824,144.23,"firefox","106.0.0","Windows 10","VerticalHorizontal","2",50,"VerticalHorizontal_-3.3000_0.22500",-3.3,"Congruent",1,0.225,"left",0,0.511
"S005","Illusion_Session1",2,40.5850666666667,"1920x947",1.81824,144.23,"firefox","106.0.0","Windows 10","VerticalHorizontal","2",51,"VerticalHorizontal_20.27143_0.10960",20.27143,"Incongruent",1,0.1096,"left",0,1.046
"S005","Illusion_Session1",2,40.5850666666667,"1920x947",1.81824,144.23,"firefox","106.0.0","Windows 10","VerticalHorizontal","2",52,"VerticalHorizontal_20.27143_-0.0673",20.27143,"Incongruent",-1,0.0673,"left",1,1.161
"S005","Illusion_Session1",2,40.5850666666667,"1920x947",1.81824,144.23,"firefox","106.0.0","Windows 10","VerticalHorizontal","2",53,"VerticalHorizontal_28.75714_0.22500",28.75714,"Incongruent",1,0.225,"left",0,0.555
"S005","Illusion_Session1",2,40.5850666666667,"1920x947",1.81824,144.23,"firefox","106.0.0","Windows 10","VerticalHorizontal","2",54,"VerticalHorizontal_3.30000_0.22500",3.3,"Incongruent",1,0.225,"left",0,0.505
"S005","Illusion_Session1",2,40.5850666666667,"1920x947",1.81824,144.23,"firefox","106.0.0","Windows 10","VerticalHorizontal","2",55,"VerticalHorizontal_-3.3000_-0.1096",-3.3,"Congruent",-1,0.1096,"right",0,0.645
"S005","Illusion_Session1",2,40.5850666666667,"1920x947",1.81824,144.23,"firefox","106.0.0","Windows 10","VerticalHorizontal","2",56,"VerticalHorizontal_3.30000_0.10960",3.3,"Incongruent",1,0.1096,"left",0,0.538
"S005","Illusion_Session1",2,40.5850666666667,"1920x947",1.81824,144.23,"firefox","106.0.0","Windows 10","VerticalHorizontal","2",57,"VerticalHorizontal_3.30000_-0.16217",3.3,"Incongruent",-1,0.16217,"right",0,0.502
"S005","Illusion_Session1",2,40.5850666666667,"1920x947",1.81824,144.23,"firefox","106.0.0","Windows 10","VerticalHorizontal","2",58,"VerticalHorizontal_3.30000_-0.1096",3.3,"Incongruent",-1,0.1096,"right",0,1.101
"S005","Illusion_Session1",2,40.5850666666667,"1920x947",1.81824,144.23,"firefox","106.0.0","Windows 10","VerticalHorizontal","2",59,"VerticalHorizontal_-20.27143_0.16217",-20.27143,"Congruent",1,0.16217,"left",0,0.522
"S005","Illusion_Session1",2,40.5850666666667,"1920x947",1.81824,144.23,"firefox","106.0.0","Windows 10","VerticalHorizontal","2",60,"VerticalHorizontal_11.78571_-0.2250",11.78571,"Incongruent",-1,0.225,"right",0,0.53
"S005","Illusion_Session1",2,40.5850666666667,"1920x947",1.81824,144.23,"firefox","106.0.0","Windows 10","VerticalHorizontal","2",61,"VerticalHorizontal_11.78571_0.06730",11.78571,"Incongruent",1,0.0673,"left",0,0.829
"S005","Illusion_Session1",2,40.5850666666667,"1920x947",1.81824,144.23,"firefox","106.0.0","Windows 10","VerticalHorizontal","2",62,"VerticalHorizontal_28.75714_0.10960",28.75714,"Incongruent",1,0.1096,"left",0,0.927
"S005","Illusion_Session1",2,40.5850666666667,"1920x947",1.81824,144.23,"firefox","106.0.0","Windows 10","VerticalHorizontal","2",63,"VerticalHorizontal_11.78571_0.16217",11.78571,"Incongruent",1,0.16217,"left",0,0.592
"S005","Illusion_Session1",2,40.5850666666667,"1920x947",1.81824,144.23,"firefox","106.0.0","Windows 10","VerticalHorizontal","2",64,"VerticalHorizontal_11.78571_0.10960",11.78571,"Incongruent",1,0.1096,"left",0,0.635
"S009","Illusion_Session1",2,35.33825,"1536x726",1.115136,60.12,"chrome","107.0.0","Windows 10","MullerLyer","1",19,"MullerLyer_14.12857_0.35000",14.12857,"Incongruent",1,0.35,"up",0,0.505
"S009","Illusion_Session1",2,35.33825,"1536x726",1.115136,60.12,"chrome","107.0.0","Windows 10","MullerLyer","1",20,"MullerLyer_-8.21429_0.14541",-8.21429,"Congruent",1,0.14541,"up",0,0.534
"S009","Illusion_Session1",2,35.33825,"1536x726",1.115136,60.12,"chrome","107.0.0","Windows 10","MullerLyer","1",21,"MullerLyer_-14.12857_0.07627",-14.12857,"Congruent",1,0.07627,"up",0,0.444
"S009","Illusion_Session1",2,35.33825,"1536x726",1.115136,60.12,"chrome","107.0.0","Windows 10","MullerLyer","1",22,"MullerLyer_20.04286_0.23665",20.04286,"Incongruent",1,0.23665,"down",1,0.828
"S009","Illusion_Session1",2,35.33825,"1536x726",1.115136,60.12,"chrome","107.0.0","Windows 10","MullerLyer","1",23,"MullerLyer_-14.12857_0.23665",-14.12857,"Congruent",1,0.23665,"up",0,0.476
"S009","Illusion_Session1",2,35.33825,"1536x726",1.115136,60.12,"chrome","107.0.0","Windows 10","MullerLyer","1",24,"MullerLyer_14.12857_0.14541",14.12857,"Incongruent",1,0.14541,"down",1,0.86
"S009","Illusion_Session1",2,35.33825,"1536x726",1.115136,60.12,"chrome","107.0.0","Windows 10","MullerLyer","1",25,"MullerLyer_-8.21429_0.07627",-8.21429,"Congruent",1,0.07627,"up",0,0.597
"S009","Illusion_Session1",2,35.33825,"1536x726",1.115136,60.12,"chrome","107.0.0","Windows 10","MullerLyer","1",26,"MullerLyer_20.04286_0.35000",20.04286,"Incongruent",1,0.35,"up",0,0.732
"S009","Illusion_Session1",2,35.33825,"1536x726",1.115136,60.12,"chrome","107.0.0","Windows 10","MullerLyer","1",27,"MullerLyer_20.04286_-0.07627",20.04286,"Incongruent",-1,0.07627,"up",1,0.45
"S009","Illusion_Session1",2,35.33825,"1536x726",1.115136,60.12,"chrome","107.0.0","Windows 10","MullerLyer","1",28,"MullerLyer_-8.21429_-0.07627",-8.21429,"Congruent",-1,0.07627,"down",0,0.483
"S009","Illusion_Session1",2,35.33825,"1536x726",1.115136,60.12,"chrome","107.0.0","Windows 10","MullerLyer","1",29,"MullerLyer_8.21429_0.23665",8.21429,"Incongruent",1,0.23665,"up",0,0.552
"S009","Illusion_Session1",2,35.33825,"1536x726",1.115136,60.12,"chrome","107.0.0","Windows 10","MullerLyer","1",30,"MullerLyer_-14.12857_-0.23665",-14.12857,"Congruent",-1,0.23665,"down",0,0.615
"S009","Illusion_Session1",2,35.33825,"1536x726",1.115136,60.12,"chrome","107.0.0","Windows 10","MullerLyer","1",31,"MullerLyer_2.30000_0.14541",2.3,"Incongruent",1,0.14541,"up",0,0.656
"S009","Illusion_Session1",2,35.33825,"1536x726",1.115136,60.12,"chrome","107.0.0","Windows 10","MullerLyer","1",32,"MullerLyer_-2.3000_0.23665",-2.3,"Congruent",1,0.23665,"up",0,0.517
"S009","Illusion_Session1",2,35.33825,"1536x726",1.115136,60.12,"chrome","107.0.0","Windows 10","MullerLyer","1",33,"MullerLyer_-8.21429_-0.14541",-8.21429,"Congruent",-1,0.14541,"down",0,0.5
"S009","Illusion_Session1",2,35.33825,"1536x726",1.115136,60.12,"chrome","107.0.0","Windows 10","MullerLyer","1",34,"MullerLyer_-20.04286_-0.23665",-20.04286,"Congruent",-1,0.23665,"down",0,0.505
"S009","Illusion_Session1",2,35.33825,"1536x726",1.115136,60.12,"chrome","107.0.0","Windows 10","MullerLyer","1",35,"MullerLyer_-14.12857_-0.07627",-14.12857,"Congruent",-1,0.07627,"down",0,0.504
"S009","Illusion_Session1",2,35.33825,"1536x726",1.115136,60.12,"chrome","107.0.0","Windows 10","MullerLyer","1",36,"MullerLyer_-8.21429_0.23665",-8.21429,"Congruent",1,0.23665,"up",0,0.581
"S009","Illusion_Session1",2,35.33825,"1536x726",1.115136,60.12,"chrome","107.0.0","Windows 10","MullerLyer","1",37,"MullerLyer_20.04286_-0.23665",20.04286,"Incongruent",-1,0.23665,"down",0,1.033
"S009","Illusion_Session1",2,35.33825,"1536x726",1.115136,60.12,"chrome","107.0.0","Windows 10","MullerLyer","1",38,"MullerLyer_2.30000_-0.14541",2.3,"Incongruent",-1,0.14541,"down",0,0.834
"S009","Illusion_Session1",2,35.33825,"1536x726",1.115136,60.12,"chrome","107.0.0","Windows 10","MullerLyer","1",39,"MullerLyer_14.12857_-0.3500",14.12857,"Incongruent",-1,0.35,"down",0,0.549
"S009","Illusion_Session1",2,35.33825,"1536x726",1.115136,60.12,"chrome","107.0.0","Windows 10","MullerLyer","1",40,"MullerLyer_-8.21429_-0.23665",-8.21429,"Congruent",-1,0.23665,"down",0,0.502
"S009","Illusion_Session1",2,35.33825,"1536x726",1.115136,60.12,"chrome","107.0.0","Windows 10","MullerLyer","1",41,"MullerLyer_20.04286_0.07627",20.04286,"Incongruent",1,0.07627,"down",1,0.475
"S009","Illusion_Session1",2,35.33825,"1536x726",1.115136,60.12,"chrome","107.0.0","Windows 10","MullerLyer","1",42,"MullerLyer_-2.3000_0.35000",-2.3,"Congruent",1,0.35,"up",0,0.515
"S009","Illusion_Session1",2,35.33825,"1536x726",1.115136,60.12,"chrome","107.0.0","Windows 10","MullerLyer","1",43,"MullerLyer_-2.3000_0.07627",-2.3,"Congruent",1,0.07627,"up",0,0.51
"S009","Illusion_Session1",2,35.33825,"1536x726",1.115136,60.12,"chrome","107.0.0","Windows 10","MullerLyer","1",44,"MullerLyer_14.12857_-0.23665",14.12857,"Incongruent",-1,0.23665,"down",0,1.185
"S009","Illusion_Session1",2,35.33825,"1536x726",1.115136,60.12,"chrome","107.0.0","Windows 10","MullerLyer","1",45,"MullerLyer_20.04286_-0.14541",20.04286,"Incongruent",-1,0.14541,"up",1,0.579
"S009","Illusion_Session1",2,35.33825,"1536x726",1.115136,60.12,"chrome","107.0.0","Windows 10","MullerLyer","1",46,"MullerLyer_2.30000_0.35000",2.3,"Incongruent",1,0.35,"up",0,0.478
"S009","Illusion_Session1",2,35.33825,"1536x726",1.115136,60.12,"chrome","107.0.0","Windows 10","MullerLyer","1",47,"MullerLyer_-20.04286_0.23665",-20.04286,"Congruent",1,0.23665,"up",0,0.53
"S009","Illusion_Session1",2,35.33825,"1536x726",1.115136,60.12,"chrome","107.0.0","Windows 10","MullerLyer","1",48,"MullerLyer_14.12857_0.07627",14.12857,"Incongruent",1,0.07627,"down",1,0.653
"S009","Illusion_Session1",2,35.33825,"1536x726",1.115136,60.12,"chrome","107.0.0","Windows 10","MullerLyer","1",49,"MullerLyer_8.21429_0.35000",8.21429,"Incongruent",1,0.35,"up",0,0.46
"S009","Illusion_Session1",2,35.33825,"1536x726",1.115136,60.12,"chrome","107.0.0","Windows 10","MullerLyer","1",50,"MullerLyer_8.21429_0.07627",8.21429,"Incongruent",1,0.07627,"down",1,0.58
"S009","Illusion_Session1",2,35.33825,"1536x726",1.115136,60.12,"chrome","107.0.0","Windows 10","MullerLyer","1",51,"MullerLyer_2.30000_0.23665",2.3,"Incongruent",1,0.23665,"up",0,0.447
"S009","Illusion_Session1",2,35.33825,"1536x726",1.115136,60.12,"chrome","107.0.0","Windows 10","MullerLyer","1",52,"MullerLyer_20.04286_0.14541",20.04286,"Incongruent",1,0.14541,"up",0,0.862
"S009","Illusion_Session1",2,35.33825,"1536x726",1.115136,60.12,"chrome","107.0.0","Windows 10","MullerLyer","1",53,"MullerLyer_-2.3000_-0.14541",-2.3,"Congruent",-1,0.14541,"down",0,0.622
"S009","Illusion_Session1",2,35.33825,"1536x726",1.115136,60.12,"chrome","107.0.0","Windows 10","MullerLyer","1",54,"MullerLyer_8.21429_-0.3500",8.21429,"Incongruent",-1,0.35,"down",0,0.699
"S009","Illusion_Session1",2,35.33825,"1536x726",1.115136,60.12,"chrome","107.0.0","Windows 10","MullerLyer","1",55,"MullerLyer_8.21429_-0.23665",8.21429,"Incongruent",-1,0.23665,"down",0,0.723
"S009","Illusion_Session1",2,35.33825,"1536x726",1.115136,60.12,"chrome","107.0.0","Windows 10","MullerLyer","1",56,"MullerLyer_-8.21429_0.35000",-8.21429,"Congruent",1,0.35,"up",0,0.56
"S009","Illusion_Session1",2,35.33825,"1536x726",1.115136,60.12,"chrome","107.0.0","Windows 10","MullerLyer","1",57,"MullerLyer_2.30000_0.07627",2.3,"Incongruent",1,0.07627,"up",0,0.779
"S009","Illusion_Session1",2,35.33825,"1536x726",1.115136,60.12,"chrome","107.0.0","Windows 10","MullerLyer","1",58,"MullerLyer_-20.04286_0.14541",-20.04286,"Congruent",1,0.14541,"up",0,0.583
"S009","Illusion_Session1",2,35.33825,"1536x726",1.115136,60.12,"chrome","107.0.0","Windows 10","MullerLyer","1",59,"MullerLyer_-14.12857_0.35000",-14.12857,"Congruent",1,0.35,"up",0,0.443
"S009","Illusion_Session1",2,35.33825,"1536x726",1.115136,60.12,"chrome","107.0.0","Windows 10","MullerLyer","1",60,"MullerLyer_-2.3000_-0.07627",-2.3,"Congruent",-1,0.07627,"down",0,0.417
"S009","Illusion_Session1",2,35.33825,"1536x726",1.115136,60.12,"chrome","107.0.0","Windows 10","MullerLyer","1",61,"MullerLyer_2.30000_-0.3500",2.3,"Incongruent",-1,0.35,"down",0,0.464
"S009","Illusion_Session1",2,35.33825,"1536x726",1.115136,60.12,"chrome","107.0.0","Windows 10","MullerLyer","1",62,"MullerLyer_2.30000_-0.23665",2.3,"Incongruent",-1,0.23665,"down",0,0.476
"S009","Illusion_Session1",2,35.33825,"1536x726",1.115136,60.12,"chrome","107.0.0","Windows 10","MullerLyer","1",63,"MullerLyer_-14.12857_-0.3500",-14.12857,"Congruent",-1,0.35,"down",0,0.458
"S009","Illusion_Session1",2,35.33825,"1536x726",1.115136,60.12,"chrome","107.0.0","Windows 10","MullerLyer","1",64,"MullerLyer_-2.3000_0.14541",-2.3,"Congruent",1,0.14541,"up",0,0.645
"S009","Illusion_Session1",2,35.33825,"1536x726",1.115136,60.12,"chrome","107.0.0","Windows 10","MullerLyer","1",65,"MullerLyer_14.12857_-0.14541",14.12857,"Incongruent",-1,0.14541,"up",1,0.771
"S009","Illusion_Session1",2,35.33825,"1536x726",1.115136,60.12,"chrome","107.0.0","Windows 10","MullerLyer","1",66,"MullerLyer_8.21429_-0.07627",8.21429,"Incongruent",-1,0.07627,"up",1,0.569
"S009","Illusion_Session1",2,35.33825,"1536x726",1.115136,60.12,"chrome","107.0.0","Windows 10","MullerLyer","1",67,"MullerLyer_8.21429_0.14541",8.21429,"Incongruent",1,0.14541,"down",1,0.9
"S009","Illusion_Session1",2,35.33825,"1536x726",1.115136,60.12,"chrome","107.0.0","Windows 10","MullerLyer","1",68,"MullerLyer_8.21429_-0.14541",8.21429,"Incongruent",-1,0.14541,"up",1,0.696
"S009","Illusion_Session1",2,35.33825,"1536x726",1.115136,60.12,"chrome","107.0.0","Windows 10","MullerLyer","1",69,"MullerLyer_-20.04286_-0.3500",-20.04286,"Congruent",-1,0.35,"down",0,0.475
"S009","Illusion_Session1",2,35.33825,"1536x726",1.115136,60.12,"chrome","107.0.0","Windows 10","MullerLyer","1",70,"MullerLyer_-14.12857_0.14541",-14.12857,"Congruent",1,0.14541,"up",0,0.495
"S009","Illusion_Session1",2,35.33825,"1536x726",1.115136,60.12,"chrome","107.0.0","Windows 10","MullerLyer","1",71,"MullerLyer_-20.04286_-0.14541",-20.04286,"Congruent",-1,0.14541,"down",0,0.428
"S009","Illusion_Session1",2,35.33825,"1536x726",1.115136,60.12,"chrome","107.0.0","Windows 10","MullerLyer","1",72,"MullerLyer_-14.12857_-0.14541",-14.12857,"Congruent",-1,0.14541,"down",0,0.443
"S009","Illusion_Session1",2,35.33825,"1536x726",1.115136,60.12,"chrome","107.0.0","Windows 10","MullerLyer","1",73,"MullerLyer_-20.04286_-0.07627",-20.04286,"Congruent",-1,0.07627,"down",0,0.5
"S009","Illusion_Session1",2,35.33825,"1536x726",1.115136,60.12,"chrome","107.0.0","Windows 10","MullerLyer","1",74,"MullerLyer_-20.04286_0.35000",-20.04286,"Congruent",1,0.35,"up",0,0.505
"S009","Illusion_Session1",2,35.33825,"1536x726",1.115136,60.12,"chrome","107.0.0","Windows 10","MullerLyer","1",75,"MullerLyer_14.12857_0.23665",14.12857,"Incongruent",1,0.23665,"down",1,0.867
"S009","Illusion_Session1",2,35.33825,"1536x726",1.115136,60.12,"chrome","107.0.0","Windows 10","MullerLyer","1",76,"MullerLyer_14.12857_-0.07627",14.12857,"Incongruent",-1,0.07627,"up",1,0.611
"S009","Illusion_Session1",2,35.33825,"1536x726",1.115136,60.12,"chrome","107.0.0","Windows 10","MullerLyer","1",77,"MullerLyer_2.30000_-0.07627",2.3,"Incongruent",-1,0.07627,"up",1,0.56
"S009","Illusion_Session1",2,35.33825,"1536x726",1.115136,60.12,"chrome","107.0.0","Windows 10","MullerLyer","1",78,"MullerLyer_-2.3000_-0.23665",-2.3,"Congruent",-1,0.23665,"down",0,0.462
"S009","Illusion_Session1",2,35.33825,"1536x726",1.115136,60.12,"chrome","107.0.0","Windows 10","MullerLyer","1",79,"MullerLyer_-20.04286_0.07627",-20.04286,"Congruent",1,0.07627,"up",0,0.563
"S009","Illusion_Session1",2,35.33825,"1536x726",1.115136,60.12,"chrome","107.0.0","Windows 10","MullerLyer","1",80,"MullerLyer_-8.21429_-0.3500",-8.21429,"Congruent",-1,0.35,"down",0,0.447
"S009","Illusion_Session1",2,35.33825,"1536x726",1.115136,60.12,"chrome","107.0.0","Windows 10","MullerLyer","1",81,"MullerLyer_-2.3000_-0.3500",-2.3,"Congruent",-1,0.35,"down",0,0.428
"S009","Illusion_Session1",2,35.33825,"1536x726",1.115136,60.12,"chrome","107.0.0","Windows 10","MullerLyer","1",82,"MullerLyer_20.04286_-0.3500",20.04286,"Incongruent",-1,0.35,"up",1,0.532
"S009","Illusion_Session1",2,35.33825,"1536x726",1.115136,60.12,"chrome","107.0.0","Windows 10","Ebbinghaus","1",1,"Ebbinghaus_-0.87143_-0.15857",-0.87143,"Congruent",-1,0.15857,"right",0,0.496
"S009","Illusion_Session1",2,35.33825,"1536x726",1.115136,60.12,"chrome","107.0.0","Windows 10","Ebbinghaus","1",2,"Ebbinghaus_-0.87143_-0.2800",-0.87143,"Congruent",-1,0.28,"right",0,0.437
"S009","Illusion_Session1",2,35.33825,"1536x726",1.115136,60.12,"chrome","107.0.0","Windows 10","Ebbinghaus","1",3,"Ebbinghaus_-0.1000_0.28000",-0.1,"Congruent",1,0.28,"left",0,0.675
"S009","Illusion_Session1",2,35.33825,"1536x726",1.115136,60.12,"chrome","107.0.0","Windows 10","Ebbinghaus","1",4,"Ebbinghaus_0.10000_-0.11071",0.1,"Incongruent",-1,0.11071,"right",0,0.638
"S009","Illusion_Session1",2,35.33825,"1536x726",1.115136,60.12,"chrome","107.0.0","Windows 10","Ebbinghaus","1",5,"Ebbinghaus_0.87143_-0.11071",0.87143,"Incongruent",-1,0.11071,"right",0,0.713
"S009","Illusion_Session1",2,35.33825,"1536x726",1.115136,60.12,"chrome","107.0.0","Windows 10","Ebbinghaus","1",6,"Ebbinghaus_-0.61429_0.15857",-0.61429,"Congruent",1,0.15857,"left",0,0.85
"S009","Illusion_Session1",2,35.33825,"1536x726",1.115136,60.12,"chrome","107.0.0","Windows 10","Ebbinghaus","1",7,"Ebbinghaus_0.10000_-0.15857",0.1,"Incongruent",-1,0.15857,"right",0,0.771
"S009","Illusion_Session1",2,35.33825,"1536x726",1.115136,60.12,"chrome","107.0.0","Windows 10","Ebbinghaus","1",8,"Ebbinghaus_0.61429_-0.11071",0.61429,"Incongruent",-1,0.11071,"left",1,1.022
"S009","Illusion_Session1",2,35.33825,"1536x726",1.115136,60.12,"chrome","107.0.0","Windows 10","Ebbinghaus","1",9,"Ebbinghaus_0.10000_0.15857",0.1,"Incongruent",1,0.15857,"left",0,0.89
"S009","Illusion_Session1",2,35.33825,"1536x726",1.115136,60.12,"chrome","107.0.0","Windows 10","Ebbinghaus","1",10,"Ebbinghaus_-0.35714_-0.2800",-0.35714,"Congruent",-1,0.28,"right",0,0.681
"S009","Illusion_Session1",2,35.33825,"1536x726",1.115136,60.12,"chrome","107.0.0","Windows 10","Ebbinghaus","1",11,"Ebbinghaus_0.10000_0.28000",0.1,"Incongruent",1,0.28,"left",0,0.783
"S009","Illusion_Session1",2,35.33825,"1536x726",1.115136,60.12,"chrome","107.0.0","Windows 10","Ebbinghaus","1",12,"Ebbinghaus_0.87143_0.28000",0.87143,"Incongruent",1,0.28,"left",0,1.017
"S009","Illusion_Session1",2,35.33825,"1536x726",1.115136,60.12,"chrome","107.0.0","Windows 10","Ebbinghaus","1",13,"Ebbinghaus_0.61429_0.15857",0.61429,"Incongruent",1,0.15857,"right",1,0.819
"S009","Illusion_Session1",2,35.33825,"1536x726",1.115136,60.12,"chrome","107.0.0","Windows 10","Ebbinghaus","1",14,"Ebbinghaus_-0.1000_-0.2800",-0.1,"Congruent",-1,0.28,"right",0,0.612
"S009","Illusion_Session1",2,35.33825,"1536x726",1.115136,60.12,"chrome","107.0.0","Windows 10","Ebbinghaus","1",15,"Ebbinghaus_0.87143_0.21500",0.87143,"Incongruent",1,0.215,"right",1,1.142
"S009","Illusion_Session1",2,35.33825,"1536x726",1.115136,60.12,"chrome","107.0.0","Windows 10","Ebbinghaus","1",16,"Ebbinghaus_0.87143_0.15857",0.87143,"Incongruent",1,0.15857,"left",0,0.767
"S009","Illusion_Session1",2,35.33825,"1536x726",1.115136,60.12,"chrome","107.0.0","Windows 10","Ebbinghaus","1",17,"Ebbinghaus_0.87143_-0.15857",0.87143,"Incongruent",-1,0.15857,"right",0,0.922
"S009","Illusion_Session1",2,35.33825,"1536x726",1.115136,60.12,"chrome","107.0.0","Windows 10","Ebbinghaus","1",18,"Ebbinghaus_-0.35714_0.15857",-0.35714,"Congruent",1,0.15857,"left",0,0.801
"S009","Illusion_Session1",2,35.33825,"1536x726",1.115136,60.12,"chrome","107.0.0","Windows 10","Ebbinghaus","1",19,"Ebbinghaus_-0.61429_0.21500",-0.61429,"Congruent",1,0.215,"left",0,0.947
"S009","Illusion_Session1",2,35.33825,"1536x726",1.115136,60.12,"chrome","107.0.0","Windows 10","Ebbinghaus","1",20,"Ebbinghaus_0.61429_-0.2150",0.61429,"Incongruent",-1,0.215,"right",0,0.974
"S009","Illusion_Session1",2,35.33825,"1536x726",1.115136,60.12,"chrome","107.0.0","Windows 10","Ebbinghaus","1",21,"Ebbinghaus_0.87143_0.11071",0.87143,"Incongruent",1,0.11071,"left",0,0.816
"S009","Illusion_Session1",2,35.33825,"1536x726",1.115136,60.12,"chrome","107.0.0","Windows 10","Ebbinghaus","1",22,"Ebbinghaus_-0.35714_-0.2150",-0.35714,"Congruent",-1,0.215,"right",0,0.627
"S009","Illusion_Session1",2,35.33825,"1536x726",1.115136,60.12,"chrome","107.0.0","Windows 10","Ebbinghaus","1",23,"Ebbinghaus_-0.35714_-0.11071",-0.35714,"Congruent",-1,0.11071,"right",0,0.86
"S009","Illusion_Session1",2,35.33825,"1536x726",1.115136,60.12,"chrome","107.0.0","Windows 10","Ebbinghaus","1",24,"Ebbinghaus_0.10000_0.21500",0.1,"Incongruent",1,0.215,"left",0,0.671
"S009","Illusion_Session1",2,35.33825,"1536x726",1.115136,60.12,"chrome","107.0.0","Windows 10","Ebbinghaus","1",25,"Ebbinghaus_-0.61429_-0.2150",-0.61429,"Congruent",-1,0.215,"right",0,0.982
"S009","Illusion_Session1",2,35.33825,"1536x726",1.115136,60.12,"chrome","107.0.0","Windows 10","Ebbinghaus","1",26,"Ebbinghaus_-0.87143_0.11071",-0.87143,"Congruent",1,0.11071,"left",0,2.018
"S009","Illusion_Session1",2,35.33825,"1536x726",1.115136,60.12,"chrome","107.0.0","Windows 10","Ebbinghaus","1",27,"Ebbinghaus_-0.61429_0.11071",-0.61429,"Congruent",1,0.11071,"left",0,0.922
"S009","Illusion_Session1",2,35.33825,"1536x726",1.115136,60.12,"chrome","107.0.0","Windows 10","Ebbinghaus","1",28,"Ebbinghaus_-0.61429_-0.11071",-0.61429,"Congruent",-1,0.11071,"right",0,1.082
"S009","Illusion_Session1",2,35.33825,"1536x726",1.115136,60.12,"chrome","107.0.0","Windows 10","Ebbinghaus","1",29,"Ebbinghaus_-0.1000_0.21500",-0.1,"Congruent",1,0.215,"left",0,0.817
"S009","Illusion_Session1",2,35.33825,"1536x726",1.115136,60.12,"chrome","107.0.0","Windows 10","Ebbinghaus","1",30,"Ebbinghaus_-0.35714_-0.15857",-0.35714,"Congruent",-1,0.15857,"right",0,0.755
"S009","Illusion_Session1",2,35.33825,"1536x726",1.115136,60.12,"chrome","107.0.0","Windows 10","Ebbinghaus","1",31,"Ebbinghaus_0.10000_0.11071",0.1,"Incongruent",1,0.11071,"left",0,1.087
"S009","Illusion_Session1",2,35.33825,"1536x726",1.115136,60.12,"chrome","107.0.0","Windows 10","Ebbinghaus","1",32,"Ebbinghaus_-0.35714_0.28000",-0.35714,"Congruent",1,0.28,"left",0,0.902
"S009","Illusion_Session1",2,35.33825,"1536x726",1.115136,60.12,"chrome","107.0.0","Windows 10","Ebbinghaus","1",33,"Ebbinghaus_-0.87143_0.28000",-0.87143,"Congruent",1,0.28,"left",0,1.388
"S009","Illusion_Session1",2,35.33825,"1536x726",1.115136,60.12,"chrome","107.0.0","Windows 10","Ebbinghaus","1",34,"Ebbinghaus_-0.1000_-0.11071",-0.1,"Congruent",-1,0.11071,"right",0,1.019
"S009","Illusion_Session1",2,35.33825,"1536x726",1.115136,60.12,"chrome","107.0.0","Windows 10","Ebbinghaus","1",35,"Ebbinghaus_-0.35714_0.21500",-0.35714,"Congruent",1,0.215,"left",0,0.816
"S009","Illusion_Session1",2,35.33825,"1536x726",1.115136,60.12,"chrome","107.0.0","Windows 10","Ebbinghaus","1",36,"Ebbinghaus_-0.61429_-0.2800",-0.61429,"Congruent",-1,0.28,"right",0,0.712
"S009","Illusion_Session1",2,35.33825,"1536x726",1.115136,60.12,"chrome","107.0.0","Windows 10","Ebbinghaus","1",37,"Ebbinghaus_-0.87143_-0.11071",-0.87143,"Congruent",-1,0.11071,"right",0,1.631
"S009","Illusion_Session1",2,35.33825,"1536x726",1.115136,60.12,"chrome","107.0.0","Windows 10","Ebbinghaus","1",38,"Ebbinghaus_0.87143_-0.2800",0.87143,"Incongruent",-1,0.28,"right",0,1.151
"S009","Illusion_Session1",2,35.33825,"1536x726",1.115136,60.12,"chrome","107.0.0","Windows 10","Ebbinghaus","1",39,"Ebbinghaus_0.35714_-0.2800",0.35714,"Incongruent",-1,0.28,"right",0,0.892
"S009","Illusion_Session1",2,35.33825,"1536x726",1.115136,60.12,"chrome","107.0.0","Windows 10","Ebbinghaus","1",40,"Ebbinghaus_-0.1000_-0.15857",-0.1,"Congruent",-1,0.15857,"right",0,1.092
"S009","Illusion_Session1",2,35.33825,"1536x726",1.115136,60.12,"chrome","107.0.0","Windows 10","Ebbinghaus","1",41,"Ebbinghaus_-0.87143_0.21500",-0.87143,"Congruent",1,0.215,"left",0,1.363
"S009","Illusion_Session1",2,35.33825,"1536x726",1.115136,60.12,"chrome","107.0.0","Windows 10","Ebbinghaus","1",42,"Ebbinghaus_0.87143_-0.2150",0.87143,"Incongruent",-1,0.215,"right",0,0.87
"S009","Illusion_Session1",2,35.33825,"1536x726",1.115136,60.12,"chrome","107.0.0","Windows 10","Ebbinghaus","1",43,"Ebbinghaus_-0.1000_-0.2150",-0.1,"Congruent",-1,0.215,"right",0,1.1
"S009","Illusion_Session1",2,35.33825,"1536x726",1.115136,60.12,"chrome","107.0.0","Windows 10","Ebbinghaus","1",44,"Ebbinghaus_-0.1000_0.11071",-0.1,"Congruent",1,0.11071,"right",1,0.914
"S009","Illusion_Session1",2,35.33825,"1536x726",1.115136,60.12,"chrome","107.0.0","Windows 10","Ebbinghaus","1",45,"Ebbinghaus_-0.61429_0.28000",-0.61429,"Congruent",1,0.28,"left",0,0.987
"S009","Illusion_Session1",2,35.33825,"1536x726",1.115136,60.12,"chrome","107.0.0","Windows 10","Ebbinghaus","1",46,"Ebbinghaus_-0.1000_0.15857",-0.1,"Congruent",1,0.15857,"left",0,1.083
"S009","Illusion_Session1",2,35.33825,"1536x726",1.115136,60.12,"chrome","107.0.0","Windows 10","Ebbinghaus","1",47,"Ebbinghaus_0.35714_0.28000",0.35714,"Incongruent",1,0.28,"left",0,1.138
"S009","Illusion_Session1",2,35.33825,"1536x726",1.115136,60.12,"chrome","107.0.0","Windows 10","Ebbinghaus","1",48,"Ebbinghaus_0.61429_0.11071",0.61429,"Incongruent",1,0.11071,"left",0,1.183
"S009","Illusion_Session1",2,35.33825,"1536x726",1.115136,60.12,"chrome","107.0.0","Windows 10","Ebbinghaus","1",49,"Ebbinghaus_0.35714_-0.15857",0.35714,"Incongruent",-1,0.15857,"right",0,0.973
"S009","Illusion_Session1",2,35.33825,"1536x726",1.115136,60.12,"chrome","107.0.0","Windows 10","Ebbinghaus","1",50,"Ebbinghaus_0.35714_0.15857",0.35714,"Incongruent",1,0.15857,"left",0,0.874
"S009","Illusion_Session1",2,35.33825,"1536x726",1.115136,60.12,"chrome","107.0.0","Windows 10","Ebbinghaus","1",51,"Ebbinghaus_0.35714_-0.11071",0.35714,"Incongruent",-1,0.11071,"right",0,0.931
"S009","Illusion_Session1",2,35.33825,"1536x726",1.115136,60.12,"chrome","107.0.0","Windows 10","Ebbinghaus","1",52,"Ebbinghaus_0.10000_-0.2150",0.1,"Incongruent",-1,0.215,"right",0,1.003
"S009","Illusion_Session1",2,35.33825,"1536x726",1.115136,60.12,"chrome","107.0.0","Windows 10","Ebbinghaus","1",53,"Ebbinghaus_0.35714_0.21500",0.35714,"Incongruent",1,0.215,"left",0,1.06
"S009","Illusion_Session1",2,35.33825,"1536x726",1.115136,60.12,"chrome","107.0.0","Windows 10","Ebbinghaus","1",54,"Ebbinghaus_0.61429_-0.15857",0.61429,"Incongruent",-1,0.15857,"right",0,1.561
"S009","Illusion_Session1",2,35.33825,"1536x726",1.115136,60.12,"chrome","107.0.0","Windows 10","Ebbinghaus","1",55,"Ebbinghaus_0.10000_-0.2800",0.1,"Incongruent",-1,0.28,"right",0,1.141
"S009","Illusion_Session1",2,35.33825,"1536x726",1.115136,60.12,"chrome","107.0.0","Windows 10","Ebbinghaus","1",56,"Ebbinghaus_-0.87143_-0.2150",-0.87143,"Congruent",-1,0.215,"right",0,1.235
"S009","Illusion_Session1",2,35.33825,"1536x726",1.115136,60.12,"chrome","107.0.0","Windows 10","Ebbinghaus","1",57,"Ebbinghaus_0.35714_0.11071",0.35714,"Incongruent",1,0.11071,"left",0,1.278
"S009","Illusion_Session1",2,35.33825,"1536x726",1.115136,60.12,"chrome","107.0.0","Windows 10","Ebbinghaus","1",58,"Ebbinghaus_0.61429_0.28000",0.61429,"Incongruent",1,0.28,"right",1,1.311
"S009","Illusion_Session1",2,35.33825,"1536x726",1.115136,60.12,"chrome","107.0.0","Windows 10","Ebbinghaus","1",59,"Ebbinghaus_0.35714_-0.2150",0.35714,"Incongruent",-1,0.215,"right",0,0.901
"S009","Illusion_Session1",2,35.33825,"1536x726",1.115136,60.12,"chrome","107.0.0","Windows 10","Ebbinghaus","1",60,"Ebbinghaus_-0.61429_-0.15857",-0.61429,"Congruent",-1,0.15857,"right",0,0.918
"S009","Illusion_Session1",2,35.33825,"1536x726",1.115136,60.12,"chrome","107.0.0","Windows 10","Ebbinghaus","1",61,"Ebbinghaus_0.61429_0.21500",0.61429,"Incongruent",1,0.215,"left",0,1.027
"S009","Illusion_Session1",2,35.33825,"1536x726",1.115136,60.12,"chrome","107.0.0","Windows 10","Ebbinghaus","1",62,"Ebbinghaus_0.61429_-0.2800",0.61429,"Incongruent",-1,0.28,"right",0,0.705
"S009","Illusion_Session1",2,35.33825,"1536x726",1.115136,60.12,"chrome","107.0.0","Windows 10","Ebbinghaus","1",63,"Ebbinghaus_-0.35714_0.11071",-0.35714,"Congruent",1,0.11071,"right",1,0.817
"S009","Illusion_Session1",2,35.33825,"1536x726",1.115136,60.12,"chrome","107.0.0","Windows 10","Ebbinghaus","1",64,"Ebbinghaus_-0.87143_0.15857",-0.87143,"Congruent",1,0.15857,"left",0,1.23
"S009","Illusion_Session1",2,35.33825,"1536x726",1.115136,60.12,"chrome","107.0.0","Windows 10","VerticalHorizontal","1",1,"VerticalHorizontal_20.27143_-0.16217",20.27143,"Incongruent",-1,0.16217,"right",0,0.846
