"Participant","Task","Task_Order","Duration","Screen_Resolution","Screen_Size","Screen_Refresh","Browser","Browser_Version","Device_OS","Illusion_Type","Block","Trial","Stimulus","Illusion_Strength","Illusion_Effect","Illusion_Side","Illusion_Difference","Answer","Error","RT"
"S005","Perceptual",1,40.5850666666667,"1920x947",1.81824,144.23,"firefox","106.0.0","Windows 10","MullerLyer","1",1,"MullerLyer_perceptual_0000000_0.22363",0,"Incongruent",1,0.22363,"up",0,0.595
"S005","Perceptual",1,40.5850666666667,"1920x947",1.81824,144.23,"firefox","106.0.0","Windows 10","MullerLyer","1",2,"MullerLyer_perceptual_0000000_0.35000",0,"Incongruent",1,0.35,"up",0,0.476
"S005","Perceptual",1,40.5850666666667,"1920x947",1.81824,144.23,"firefox","106.0.0","Windows 10","MullerLyer","1",3,"MullerLyer_perceptual_0000000_-0.06118",0,"Incongruent",-1,0.06118,"down",0,0.593
"S005","Perceptual",1,40.5850666666667,"1920x947",1.81824,144.23,"firefox","106.0.0","Windows 10","MullerLyer","1",4,"MullerLyer_perceptual_0000000_-0.21255",0,"Incongruent",-1,0.21255,"down",0,0.518
"S005","Perceptual",1,40.5850666666667,"1920x947",1.81824,144.23,"firefox","106.0.0","Windows 10","MullerLyer","1",5,"MullerLyer_perceptual_0000000_-0.0500",0,"Incongruent",-1,0.05,"down",0,1.177
"S005","Perceptual",1,40.5850666666667,"1920x947",1.81824,144.23,"firefox","106.0.0","Windows 10","MullerLyer","1",6,"MullerLyer_perceptual_0000000_0.08007",0,"Incongruent",1,0.08007,"up",0,0.612
"S005","Perceptual",1,40.5850666666667,"1920x947",1.81824,144.23,"firefox","106.0.0","Windows 10","MullerLyer","1",7,"MullerLyer_perceptual_0000000_-0.11718",0,"Incongruent",-1,0.11718,"down",0,0.589
"S005","Perceptual",1,40.5850666666667,"1920x947",1.81824,144.23,"firefox","106.0.0","Windows 10","MullerLyer","1",8,"MullerLyer_perceptual_0000000_0.06719",0,"Incongruent",1,0.06719,"up",0,0.93
"S005","Perceptual",1,40.5850666666667,"1920x947",1.81824,144.23,"firefox","106.0.0","Windows 10","MullerLyer","1",9,"MullerLyer_perceptual_0000000_0.20174",0,"Incongruent",1,0.20174,"up",0,0.532
"S005","Perceptual",1,40.5850666666667,"1920x947",1.81824,144.23,"firefox","106.0.0","Windows 10","MullerLyer","1",10,"MullerLyer_perceptual_0000000_-0.19122",0,"Incongruent",-1,0.19122,"down",0,0.575
"S005","Perceptual",1,40.5850666666667,"1920x947",1.81824,144.23,"firefox","106.0.0","Windows 10","MullerLyer","1",11,"MullerLyer_perceptual_0000000_0.14283",0,"Incongruent",1,0.14283,"up",0,0.587
"S005","Perceptual",1,40.5850666666667,"1920x947",1.81824,144.23,"firefox","106.0.0","Windows 10","MullerLyer","1",12,"MullerLyer_perceptual_0000000_-0.17102",0,"Incongruent",-1,0.17102,"down",0,0.566
"S005","Perceptual",1,40.5850666666667,"1920x947",1.81824,144.23,"firefox","106.0.0","Windows 10","MullerLyer","1",13,"MullerLyer_perceptual_0000000_0.32247",0,"Incongruent",1,0.32247,"up",0,0.593
"S005","Perceptual",1,40.5850666666667,"1920x947",1.81824,144.23,"firefox","106.0.0","Windows 10","MullerLyer","1",14,"MullerLyer_perceptual_0000000_0.24665",0,"Incongruent",1,0.24665,"up",0,0.578
"S005","Perceptual",1,40.5850666666667,"1920x947",1.81824,144.23,"firefox","106.0.0","Windows 10","MullerLyer","1",15,"MullerLyer_perceptual_0000000_0.16134",0,"Incongruent",1,0.16134,"up",0,0.654
"S005","Perceptual",1,40.5850666666667,"1920x947",1.81824,144.23,"firefox","106.0.0","Windows 10","MullerLyer","1",16,"MullerLyer_perceptual_0000000_0.05545",0,"Incongruent",1,0.05545,"up",0,1.115
"S005","Perceptual",1,40.5850666666667,"1920x947",1.81824,144.23,"firefox","106.0.0","Windows 10","MullerLyer","1",17,"MullerLyer_perceptual_0000000_-0.32247",0,"Incongruent",-1,0.32247,"down",0,0.592
"S005","Perceptual",1,40.5850666666667,"1920x947",1.81824,144.23,"firefox","106.0.0","Windows 10","MullerLyer","1",18,"MullerLyer_perceptual_0000000_-0.2350",0,"Incongruent",-1,0.235,"down",0,0.579
"S005","Perceptual",1,40.5850666666667,"1920x947",1.81824,144.23,"firefox","106.0.0","Windows 10","MullerLyer","1",19,"MullerLyer_perceptual_0000000_-0.2708",0,"Incongruent",-1,0.2708,"down",0,0.575
"S005","Perceptual",1,40.5850666666667,"1920x947",1.81824,144.23,"firefox","106.0.0","Windows 10","MullerLyer","1",20,"MullerLyer_perceptual_0000000_0.29607",0,"Incongruent",1,0.29607,"up",0,0.622
"S005","Perceptual",1,40.5850666666667,"1920x947",1.81824,144.23,"firefox","106.0.0","Windows 10","MullerLyer","1",21,"MullerLyer_perceptual_0000000_0.09407",0,"Incongruent",1,0.09407,"up",0,0.939
"S005","Perceptual",1,40.5850666666667,"1920x947",1.81824,144.23,"firefox","106.0.0","Windows 10","MullerLyer","1",22,"MullerLyer_perceptual_0000000_0.10919",0,"Incongruent",1,0.10919,"up",0,1.053
"S005","Perceptual",1,40.5850666666667,"1920x947",1.81824,144.23,"firefox","106.0.0","Windows 10","MullerLyer","1",23,"MullerLyer_perceptual_0000000_-0.1340",0,"Incongruent",-1,0.134,"down",0,0.805
"S005","Perceptual",1,40.5850666666667,"1920x947",1.81824,144.23,"firefox","106.0.0","Windows 10","MullerLyer","1",24,"MullerLyer_perceptual_0000000_-0.15194",0,"Incongruent",-1,0.15194,"down",0,0.637
"S005","Perceptual",1,40.5850666666667,"1920x947",1.81824,144.23,"firefox","106.0.0","Windows 10","MullerLyer","1",25,"MullerLyer_perceptual_0000000_-0.29607",0,"Incongruent",-1,0.29607,"down",0,0.535
"S005","Perceptual",1,40.5850666666667,"1920x947",1.81824,144.23,"firefox","106.0.0","Windows 10","MullerLyer","1",26,"MullerLyer_perceptual_0000000_-0.07349",0,"Incongruent",-1,0.07349,"down",0,1.194
"S005","Perceptual",1,40.5850666666667,"1920x947",1.81824,144.23,"firefox","106.0.0","Windows 10","MullerLyer","1",27,"MullerLyer_perceptual_0000000_0.27080",0,"Incongruent",1,0.2708,"up",0,0.625
"S005","Perceptual",1,40.5850666666667,"1920x947",1.81824,144.23,"firefox","106.0.0","Windows 10","MullerLyer","1",28,"MullerLyer_perceptual_0000000_0.12545",0,"Incongruent",1,0.12545,"up",0,1.215
"S005","Perceptual",1,40.5850666666667,"1920x947",1.81824,144.23,"firefox","106.0.0","Windows 10","MullerLyer","1",29,"MullerLyer_perceptual_0000000_0.18098",0,"Incongruent",1,0.18098,"up",0,0.539
"S005","Perceptual",1,40.5850666666667,"1920x947",1.81824,144.23,"firefox","106.0.0","Windows 10","MullerLyer","1",30,"MullerLyer_perceptual_0000000_-0.10149",0,"Incongruent",-1,0.10149,"down",0,0.612
"S005","Perceptual",1,40.5850666666667,"1920x947",1.81824,144.23,"firefox","106.0.0","Windows 10","MullerLyer","1",31,"MullerLyer_perceptual_0000000_-0.08693",0,"Incongruent",-1,0.08693,"down",0,0.582
"S005","Perceptual",1,40.5850666666667,"1920x947",1.81824,144.23,"firefox","106.0.0","Windows 10","MullerLyer","1",32,"MullerLyer_perceptual_0000000_-0.3500",0,"Incongruent",-1,0.35,"down",0,0.526
"S005","Perceptual",1,40.5850666666667,"1920x947",1.81824,144.23,"firefox","106.0.0","Windows 10","Ebbinghaus","1",1,"Ebbinghaus_perceptual_0000000_-0.21402",0,"Incongruent",-1,0.21402,"right",0,1.517
"S005","Perceptual",1,40.5850666666667,"1920x947",1.81824,144.23,"firefox","106.0.0","Windows 10","Ebbinghaus","1",2,"Ebbinghaus_perceptual_0000000_0.11354",0,"Incongruent",1,0.11354,"left",0,0.787
"S005","Perceptual",1,40.5850666666667,"1920x947",1.81824,144.23,"firefox","106.0.0","Windows 10","Ebbinghaus","1",3,"Ebbinghaus_perceptual_0000000_-0.2800",0,"Incongruent",-1,0.28,"right",0,0.627
"S005","Perceptual",1,40.5850666666667,"1920x947",1.81824,144.23,"firefox","106.0.0","Windows 10","Ebbinghaus","1",4,"Ebbinghaus_perceptual_0000000_0.10380",0,"Incongruent",1,0.1038,"left",0,0.743
"S005","Perceptual",1,40.5850666666667,"1920x947",1.81824,144.23,"firefox","106.0.0","Windows 10","Ebbinghaus","1",5,"Ebbinghaus_perceptual_0000000_0.23503",0,"Incongruent",1,0.23503,"left",0,0.659
"S005","Perceptual",1,40.5850666666667,"1920x947",1.81824,144.23,"firefox","106.0.0","Windows 10","Ebbinghaus","1",6,"Ebbinghaus_perceptual_0000000_-0.09909",0,"Incongruent",-1,0.09909,"right",0,1.125
"S005","Perceptual",1,40.5850666666667,"1920x947",1.81824,144.23,"firefox","106.0.0","Windows 10","Ebbinghaus","1",7,"Ebbinghaus_perceptual_0000000_-0.1628",0,"Incongruent",-1,0.1628,"right",0,0.959
"S005","Perceptual",1,40.5850666666667,"1920x947",1.81824,144.23,"firefox","106.0.0","Windows 10","Ebbinghaus","1",8,"Ebbinghaus_perceptual_0000000_0.28000",0,"Incongruent",1,0.28,"left",0,0.57
"S005","Perceptual",1,40.5850666666667,"1920x947",1.81824,144.23,"firefox","106.0.0","Windows 10","Ebbinghaus","1",9,"Ebbinghaus_perceptual_0000000_-0.13982",0,"Incongruent",-1,0.13982,"right",0,0.692
"S005","Perceptual",1,40.5850666666667,"1920x947",1.81824,144.23,"firefox","106.0.0","Windows 10","Ebbinghaus","1",10,"Ebbinghaus_perceptual_0000000_-0.24958",0,"Incongruent",-1,0.24958,"right",0,0.598
"S005","Perceptual",1,40.5850666666667,"1920x947",1.81824,144.23,"firefox","106.0.0","Windows 10","Ebbinghaus","1",11,"Ebbinghaus_perceptual_0000000_0.18119",0,"Incongruent",1,0.18119,"left",0,0.855
"S005","Perceptual",1,40.5850666666667,"1920x947",1.81824,144.23,"firefox","106.0.0","Windows 10","Ebbinghaus","1",12,"Ebbinghaus_perceptual_0000000_-0.18754",0,"Incongruent",-1,0.18754,"right",0,0.768
"S005","Perceptual",1,40.5850666666667,"1920x947",1.81824,144.23,"firefox","106.0.0","Windows 10","Ebbinghaus","1",13,"Ebbinghaus_perceptual_0000000_0.12372",0,"Incongruent",1,0.12372,"left",0,0.851
"S005","Perceptual",1,40.5850666666667,"1920x947",1.81824,144.23,"firefox","106.0.0","Windows 10","Ebbinghaus","1",14,"Ebbinghaus_perceptual_0000000_0.16882",0,"Incongruent",1,0.16882,"left",0,0.782
"S005","Perceptual",1,40.5850666666667,"1920x947",1.81824,144.23,"firefox","106.0.0","Windows 10","Ebbinghaus","1",15,"Ebbinghaus_perceptual_0000000_-0.23503",0,"Incongruent",-1,0.23503,"right",0,0.986
"S005","Perceptual",1,40.5850666666667,"1920x947",1.81824,144.23,"firefox","106.0.0","Windows 10","Ebbinghaus","1",16,"Ebbinghaus_perceptual_0000000_0.20724",0,"Incongruent",1,0.20724,"left",0,0.83
"S005","Perceptual",1,40.5850666666667,"1920x947",1.81824,144.23,"firefox","106.0.0","Windows 10","Ebbinghaus","1",17,"Ebbinghaus_perceptual_0000000_0.13434",0,"Incongruent",1,0.13434,"left",0,0.746
"S005","Perceptual",1,40.5850666666667,"1920x947",1.81824,144.23,"firefox","106.0.0","Windows 10","Ebbinghaus","1",18,"Ebbinghaus_perceptual_0000000_-0.26457",0,"Incongruent",-1,0.26457,"right",0,0.934
"S005","Perceptual",1,40.5850666666667,"1920x947",1.81824,144.23,"firefox","106.0.0","Windows 10","Ebbinghaus","1",19,"Ebbinghaus_perceptual_0000000_0.15689",0,"Incongruent",1,0.15689,"left",0,0.772
"S005","Perceptual",1,40.5850666666667,"1920x947",1.81824,144.23,"firefox","106.0.0","Windows 10","Ebbinghaus","1",20,"Ebbinghaus_perceptual_0000000_0.24958",0,"Incongruent",1,0.24958,"left",0,0.723
"S005","Perceptual",1,40.5850666666667,"1920x947",1.81824,144.23,"firefox","106.0.0","Windows 10","Ebbinghaus","1",21,"Ebbinghaus_perceptual_0000000_0.19399",0,"Incongruent",1,0.19399,"left",0,0.648
"S005","Perceptual",1,40.5850666666667,"1920x947",1.81824,144.23,"firefox","106.0.0","Windows 10","Ebbinghaus","1",22,"Ebbinghaus_perceptual_0000000_-0.17495",0,"Incongruent",-1,0.17495,"right",0,0.765
"S005","Perceptual",1,40.5850666666667,"1920x947",1.81824,144.23,"firefox","106.0.0","Windows 10","Ebbinghaus","1",23,"Ebbinghaus_perceptual_0000000_-0.11858",0,"Incongruent",-1,0.11858,"right",0,1.025
"S005","Perceptual",1,40.5850666666667,"1920x947",1.81824,144.23,"firefox","106.0.0","Windows 10","Ebbinghaus","1",24,"Ebbinghaus_perceptual_0000000_-0.15109",0,"Incongruent",-1,0.15109,"right",0,0.86
"S005","Perceptual",1,40.5850666666667,"1920x947",1.81824,144.23,"firefox","106.0.0","Windows 10","Ebbinghaus","1",25,"Ebbinghaus_perceptual_0000000_0.14540",0,"Incongruent",1,0.1454,"left",0,0.639
"S005","Perceptual",1,40.5850666666667,"1920x947",1.81824,144.23,"firefox","106.0.0","Windows 10","Ebbinghaus","1",26,"Ebbinghaus_perceptual_0000000_0.22091",0,"Incongruent",1,0.22091,"left",0,0.657
"S005","Perceptual",1,40.5850666666667,"1920x947",1.81824,144.23,"firefox","106.0.0","Windows 10","Ebbinghaus","1",27,"Ebbinghaus_perceptual_0000000_-0.10861",0,"Incongruent",-1,0.10861,"right",0,1
"S005","Perceptual",1,40.5850666666667,"1920x947",1.81824,144.23,"firefox","106.0.0","Windows 10","Ebbinghaus","1",28,"Ebbinghaus_perceptual_0000000_-0.12898",0,"Incongruent",-1,0.12898,"right",0,2.065
"S005","Perceptual",1,40.5850666666667,"1920x947",1.81824,144.23,"firefox","106.0.0","Windows 10","Ebbinghaus","1",29,"Ebbinghaus_perceptual_0000000_-0.0900",0,"Incongruent",-1,0.09,"right",0,1.733
"S005","Perceptual",1,40.5850666666667,"1920x947",1.81824,144.23,"firefox","106.0.0","Windows 10","Ebbinghaus","1",30,"Ebbinghaus_perceptual_0000000_0.26457",0,"Incongruent",1,0.26457,"left",0,0.877
"S005","Perceptual",1,40.5850666666667,"1920x947",1.81824,144.23,"firefox","106.0.0","Windows 10","Ebbinghaus","1",31,"Ebbinghaus_perceptual_0000000_-0.20056",0,"Incongruent",-1,0.20056,"right",0,0.849
"S005","Perceptual",1,40.5850666666667,"1920x947",1.81824,144.23,"firefox","106.0.0","Windows 10","Ebbinghaus","1",32,"Ebbinghaus_perceptual_0000000_0.09449",0,"Incongruent",1,0.09449,"left",0,0.964
"S005","Perceptual",1,40.5850666666667,"1920x947",1.81824,144.23,"firefox","106.0.0","Windows 10","VerticalHorizontal","1",1,"VerticalHorizontal_0000000_-0.19535",0,"Incongruent",-1,0.19535,"right",0,0.909
"S005","Perceptual",1,40.5850666666667,"1920x947",1.81824,144.23,"firefox","106.0.0","Windows 10","VerticalHorizontal","1",2,"VerticalHorizontal_0000000_-0.1363",0,"Incongruent",-1,0.1363,"right",0,1.427
"S005","Perceptual",1,40.5850666666667,"1920x947",1.81824,144.23,"firefox","106.0.0","Windows 10","VerticalHorizontal","1",3,"VerticalHorizontal_0000000_-0.10283",0,"Incongruent",-1,0.10283,"right",0,1.577
"S005","Perceptual",1,40.5850666666667,"1920x947",1.81824,144.23,"firefox","106.0.0","Windows 10","VerticalHorizontal","1",5,"VerticalHorizontal_0000000_0.05368",0,"Incongruent",1,0.05368,"left",0,0.717
"S005","Perceptual",1,40.5850666666667,"1920x947",1.81824,144.23,"firefox","106.0.0","Windows 10","VerticalHorizontal","1",6,"VerticalHorizontal_0000000_0.07853",0,"Incongruent",1,0.07853,"left",0,0.939
"S005","Perceptual",1,40.5850666666667,"1920x947",1.81824,144.23,"firefox","106.0.0","Windows 10","VerticalHorizontal","1",8,"VerticalHorizontal_0000000_-0.11346",0,"Incongruent",-1,0.11346,"right",0,1.103
"S005","Perceptual",1,40.5850666666667,"1920x947",1.81824,144.23,"firefox","106.0.0","Windows 10","VerticalHorizontal","1",9,"VerticalHorizontal_0000000_-0.12462",0,"Incongruent",-1,0.12462,"right",0,0.954
"S005","Perceptual",1,40.5850666666667,"1920x947",1.81824,144.23,"firefox","106.0.0","Windows 10","VerticalHorizontal","1",10,"VerticalHorizontal_0000000_0.10808",0,"Incongruent",1,0.10808,"left",0,0.79
"S005","Perceptual",1,40.5850666666667,"1920x947",1.81824,144.23,"firefox","106.0.0","Windows 10","VerticalHorizontal","1",12,"VerticalHorizontal_0000000_0.06972",0,"Incongruent",1,0.06972,"left",0,0.756
"S005","Perceptual",1,40.5850666666667,"1920x947",1.81824,144.23,"firefox","106.0.0","Windows 10","VerticalHorizontal","1",13,"VerticalHorizontal_0000000_-0.16124",0,"Incongruent",-1,0.16124,"right",0,1.044
"S005","Perceptual",1,40.5850666666667,"1920x947",1.81824,144.23,"firefox","106.0.0","Windows 10","VerticalHorizontal","1",14,"VerticalHorizontal_0000000_0.06144",0,"Incongruent",1,0.06144,"left",0,0.985
"S005","Perceptual",1,40.5850666666667,"1920x947",1.81824,144.23,"firefox","106.0.0","Windows 10","VerticalHorizontal","1",15,"VerticalHorizontal_0000000_-0.20992",0,"Incongruent",-1,0.20992,"right",0,0.638
"S005","Perceptual",1,40.5850666666667,"1920x947",1.81824,144.23,"firefox","106.0.0","Windows 10","VerticalHorizontal","1",16,"VerticalHorizontal_0000000_0.20992",0,"Incongruent",1,0.20992,"left",0,0.572
"S005","Perceptual",1,40.5850666666667,"1920x947",1.81824,144.23,"firefox","106.0.0","Windows 10","VerticalHorizontal","1",17,"VerticalHorizontal_0000000_-0.07406",0,"Incongruent",-1,0.07406,"right",0,0.818
"S005","Perceptual",1,40.5850666666667,"1920x947",1.81824,144.23,"firefox","106.0.0","Windows 10","VerticalHorizontal","1",18,"VerticalHorizontal_0000000_0.16780",0,"Incongruent",1,0.1678,"left",0,0.626
"S005","Perceptual",1,40.5850666666667,"1920x947",1.81824,144.23,"firefox","106.0.0","Windows 10","VerticalHorizontal","1",19,"VerticalHorizontal_0000000_0.15481",0,"Incongruent",1,0.15481,"left",0,0.563
"S005","Perceptual",1,40.5850666666667,"1920x947",1.81824,144.23,"firefox","106.0.0","Windows 10","VerticalHorizontal","1",20,"VerticalHorizontal_0000000_0.13040",0,"Incongruent",1,0.1304,"left",0,0.594
"S005","Perceptual",1,40.5850666666667,"1920x947",1.81824,144.23,"firefox","106.0.0","Windows 10","VerticalHorizontal","1",21,"VerticalHorizontal_0000000_0.19535",0,"Incongruent",1,0.19535,"left",0,0.796
"S005","Perceptual",1,40.5850666666667,"1920x947",1.81824,144.23,"firefox","106.0.0","Windows 10","VerticalHorizontal","1",22,"VerticalHorizontal_0000000_0.08785",0,"Incongruent",1,0.08785,"left",0,0.65
"S005","Perceptual",1,40.5850666666667,"1920x947",1.81824,144.23,"firefox","106.0.0","Windows 10","VerticalHorizontal","1",23,"VerticalHorizontal_0000000_-0.2250",0,"Incongruent",-1,0.225,"right",0,0.658
"S005","Perceptual",1,40.5850666666667,"1920x947",1.81824,144.23,"firefox","106.0.0","Windows 10","VerticalHorizontal","1",24,"VerticalHorizontal_0000000_0.09770",0,"Incongruent",1,0.0977,"left",0,0.711
"S005","Perceptual",1,40.5850666666667,"1920x947",1.81824,144.23,"firefox","106.0.0","Windows 10","VerticalHorizontal","1",26,"VerticalHorizontal_0000000_-0.14851",0,"Incongruent",-1,0.14851,"right",0,0.883
"S005","Perceptual",1,40.5850666666667,"1920x947",1.81824,144.23,"firefox","106.0.0","Windows 10","VerticalHorizontal","1",27,"VerticalHorizontal_0000000_0.22500",0,"Incongruent",1,0.225,"left",0,0.614
"S005","Perceptual",1,40.5850666666667,"1920x947",1.81824,144.23,"firefox","106.0.0","Windows 10","VerticalHorizontal","1",28,"VerticalHorizontal_0000000_-0.0500",0,"Incongruent",-1,0.05,"right",0,1.101
"S005","Perceptual",1,40.5850666666667,"1920x947",1.81824,144.23,"firefox","106.0.0","Windows 10","VerticalHorizontal","1",29,"VerticalHorizontal_0000000_0.11898",0,"Incongruent",1,0.11898,"left",0,0.731
"S005","Perceptual",1,40.5850666666667,"1920x947",1.81824,144.23,"firefox","106.0.0","Windows 10","VerticalHorizontal","1",30,"VerticalHorizontal_0000000_-0.18132",0,"Incongruent",-1,0.18132,"right",0,0.74
"S005","Perceptual",1,40.5850666666667,"1920x947",1.81824,144.23,"firefox","106.0.0","Windows 10","VerticalHorizontal","1",31,"VerticalHorizontal_0000000_-0.08312",0,"Incongruent",-1,0.08312,"right",0,1.15
"S005","Perceptual",1,40.5850666666667,"1920x947",1.81824,144.23,"firefox","106.0.0","Windows 10","VerticalHorizontal","1",32,"VerticalHorizontal_0000000_0.18132",0,"Incongruent",1,0.18132,"left",0,0.75
"S005","Perceptual",1,40.5850666666667,"1920x947",1.81824,144.23,"firefox","106.0.0","Windows 10","MullerLyer","2",1,"MullerLyer_perceptual_0000000_-0.25858",0,"Incongruent",-1,0.25858,"down",0,0.644
"S005","Perceptual",1,40.5850666666667,"1920x947",1.81824,144.23,"firefox","106.0.0","Windows 10","MullerLyer","2",2,"MullerLyer_perceptual_0000000_-0.22363",0,"Incongruent",-1,0.22363,"down",0,0.566
"S005","Perceptual",1,40.5850666666667,"1920x947",1.81824,144.23,"firefox","106.0.0","Windows 10","MullerLyer","2",3,"MullerLyer_perceptual_0000000_0.06118",0,"Incongruent",1,0.06118,"up",0,1.018
"S005","Perceptual",1,40.5850666666667,"1920x947",1.81824,144.23,"firefox","106.0.0","Windows 10","MullerLyer","2",4,"MullerLyer_perceptual_0000000_-0.14283",0,"Incongruent",-1,0.14283,"down",0,0.676
"S005","Perceptual",1,40.5850666666667,"1920x947",1.81824,144.23,"firefox","106.0.0","Windows 10","MullerLyer","2",5,"MullerLyer_perceptual_0000000_0.23500",0,"Incongruent",1,0.235,"up",0,0.903
"S005","Perceptual",1,40.5850666666667,"1920x947",1.81824,144.23,"firefox","106.0.0","Windows 10","MullerLyer","2",7,"MullerLyer_perceptual_0000000_-0.05545",0,"Incongruent",-1,0.05545,"down",0,1.746
"S005","Perceptual",1,40.5850666666667,"1920x947",1.81824,144.23,"firefox","106.0.0","Windows 10","MullerLyer","2",8,"MullerLyer_perceptual_0000000_0.33609",0,"Incongruent",1,0.33609,"up",0,1.01
"S005","Perceptual",1,40.5850666666667,"1920x947",1.81824,144.23,"firefox","106.0.0","Windows 10","MullerLyer","2",9,"MullerLyer_perceptual_0000000_-0.28329",0,"Incongruent",-1,0.28329,"down",0,0.608
"S005","Perceptual",1,40.5850666666667,"1920x947",1.81824,144.23,"firefox","106.0.0","Windows 10","MullerLyer","2",10,"MullerLyer_perceptual_0000000_-0.16134",0,"Incongruent",-1,0.16134,"down",0,0.938
"S005","Perceptual",1,40.5850666666667,"1920x947",1.81824,144.23,"firefox","106.0.0","Windows 10","MullerLyer","2",11,"MullerLyer_perceptual_0000000_0.13400",0,"Incongruent",1,0.134,"up",0,0.976
"S005","Perceptual",1,40.5850666666667,"1920x947",1.81824,144.23,"firefox","106.0.0","Windows 10","MullerLyer","2",12,"MullerLyer_perceptual_0000000_0.28329",0,"Incongruent",1,0.28329,"up",0,0.975
"S005","Perceptual",1,40.5850666666667,"1920x947",1.81824,144.23,"firefox","106.0.0","Windows 10","MullerLyer","2",13,"MullerLyer_perceptual_0000000_0.17102",0,"Incongruent",1,0.17102,"up",0,1.08
"S005","Perceptual",1,40.5850666666667,"1920x947",1.81824,144.23,"firefox","106.0.0","Windows 10","MullerLyer","2",14,"MullerLyer_perceptual_0000000_0.21255",0,"Incongruent",1,0.21255,"up",0,0.74
"S005","Perceptual",1,40.5850666666667,"1920x947",1.81824,144.23,"firefox","106.0.0","Windows 10","MullerLyer","2",15,"MullerLyer_perceptual_0000000_-0.09407",0,"Incongruent",-1,0.09407,"down",0,0.65
"S005","Perceptual",1,40.5850666666667,"1920x947",1.81824,144.23,"firefox","106.0.0","Windows 10","MullerLyer","2",16,"MullerLyer_perceptual_0000000_-0.10919",0,"Incongruent",-1,0.10919,"down",0,0.918
"S005","Perceptual",1,40.5850666666667,"1920x947",1.81824,144.23,"firefox","106.0.0","Windows 10","MullerLyer","2",17,"MullerLyer_perceptual_0000000_0.08693",0,"Incongruent",1,0.08693,"up",0,1.15
"S005","Perceptual",1,40.5850666666667,"1920x947",1.81824,144.23,"firefox","106.0.0","Windows 10","MullerLyer","2",18,"MullerLyer_perceptual_0000000_-0.33609",0,"Incongruent",-1,0.33609,"down",0,0.65
"S005","Perceptual",1,40.5850666666667,"1920x947",1.81824,144.23,"firefox","106.0.0","Windows 10","MullerLyer","2",19,"MullerLyer_perceptual_0000000_-0.06719",0,"Incongruent",-1,0.06719,"down",0,1.338
"S005","Perceptual",1,40.5850666666667,"1920x947",1.81824,144.23,"firefox","106.0.0","Windows 10","MullerLyer","2",20,"MullerLyer_perceptual_0000000_0.07349",0,"Incongruent",1,0.07349,"up",0,1.283
"S005","Perceptual",1,40.5850666666667,"1920x947",1.81824,144.23,"firefox","106.0.0","Windows 10","MullerLyer","2",21,"MullerLyer_perceptual_0000000_0.30913",0,"Incongruent",1,0.30913,"up",0,0.895
"S005","Perceptual",1,40.5850666666667,"1920x947",1.81824,144.23,"firefox","106.0.0","Windows 10","MullerLyer","2",22,"MullerLyer_perceptual_0000000_-0.20174",0,"Incongruent",-1,0.20174,"down",0,0.602
"S005","Perceptual",1,40.5850666666667,"1920x947",1.81824,144.23,"firefox","106.0.0","Windows 10","MullerLyer","2",23,"MullerLyer_perceptual_0000000_-0.12545",0,"Incongruent",-1,0.12545,"down",0,0.633
"S005","Perceptual",1,40.5850666666667,"1920x947",1.81824,144.23,"firefox","106.0.0","Windows 10","MullerLyer","2",24,"MullerLyer_perceptual_0000000_-0.18098",0,"Incongruent",-1,0.18098,"down",0,0.624
"S005","Perceptual",1,40.5850666666667,"1920x947",1.81824,144.23,"firefox","106.0.0","Windows 10","MullerLyer","2",25,"MullerLyer_perceptual_0000000_0.11718",0,"Incongruent",1,0.11718,"up",0,1.02
"S005","Perceptual",1,40.5850666666667,"1920x947",1.81824,144.23,"firefox","106.0.0","Windows 10","MullerLyer","2",26,"MullerLyer_perceptual_0000000_0.25858",0,"Incongruent",1,0.25858,"up",0,0.684
"S005","Perceptual",1,40.5850666666667,"1920x947",1.81824,144.23,"firefox","106.0.0","Windows 10","MullerLyer","2",27,"MullerLyer_perceptual_0000000_-0.08007",0,"Incongruent",-1,0.08007,"down",0,1.118
"S005","Perceptual",1,40.5850666666667,"1920x947",1.81824,144.23,"firefox","106.0.0","Windows 10","MullerLyer","2",28,"MullerLyer_perceptual_0000000_0.15194",0,"Incongruent",1,0.15194,"up",0,0.983
"S005","Perceptual",1,40.5850666666667,"1920x947",1.81824,144.23,"firefox","106.0.0","Windows 10","MullerLyer","2",29,"MullerLyer_perceptual_0000000_-0.24665",0,"Incongruent",-1,0.24665,"down",0,0.62
"S005","Perceptual",1,40.5850666666667,"1920x947",1.81824,144.23,"firefox","106.0.0","Windows 10","MullerLyer","2",30,"MullerLyer_perceptual_0000000_0.19122",0,"Incongruent",1,0.19122,"up",0,0.768
"S005","Perceptual",1,40.5850666666667,"1920x947",1.81824,144.23,"firefox","106.0.0","Windows 10","MullerLyer","2",31,"MullerLyer_perceptual_0000000_0.10149",0,"Incongruent",1,0.10149,"up",0,1.047
"S005","Perceptual",1,40.5850666666667,"1920x947",1.81824,144.23,"firefox","106.0.0","Windows 10","MullerLyer","2",32,"MullerLyer_perceptual_0000000_-0.30913",0,"Incongruent",-1,0.30913,"down",0,0.61
"S005","Perceptual",1,40.5850666666667,"1920x947",1.81824,144.23,"firefox","106.0.0","Windows 10","Ebbinghaus","2",1,"Ebbinghaus_perceptual_0000000_-0.22091",0,"Incongruent",-1,0.22091,"right",0,1.195
"S005","Perceptual",1,40.5850666666667,"1920x947",1.81824,144.23,"firefox","106.0.0","Windows 10","Ebbinghaus","2",2,"Ebbinghaus_perceptual_0000000_0.15109",0,"Incongruent",1,0.15109,"left",0,0.885
"S005","Perceptual",1,40.5850666666667,"1920x947",1.81824,144.23,"firefox","106.0.0","Windows 10","Ebbinghaus","2",3,"Ebbinghaus_perceptual_0000000_-0.25702",0,"Incongruent",-1,0.25702,"right",0,0.93
"S005","Perceptual",1,40.5850666666667,"1920x947",1.81824,144.23,"firefox","106.0.0","Windows 10","Ebbinghaus","2",5,"Ebbinghaus_perceptual_0000000_0.16280",0,"Incongruent",1,0.1628,"left",0,0.87
"S005","Perceptual",1,40.5850666666667,"1920x947",1.81824,144.23,"firefox","106.0.0","Windows 10","Ebbinghaus","2",6,"Ebbinghaus_perceptual_0000000_-0.13434",0,"Incongruent",-1,0.13434,"right",0,0.841
"S005","Perceptual",1,40.5850666666667,"1920x947",1.81824,144.23,"firefox","106.0.0","Windows 10","Ebbinghaus","2",7,"Ebbinghaus_perceptual_0000000_0.20056",0,"Incongruent",1,0.20056,"left",0,1.061
"S005","Perceptual",1,40.5850666666667,"1920x947",1.81824,144.23,"firefox","106.0.0","Windows 10","Ebbinghaus","2",8,"Ebbinghaus_perceptual_0000000_-0.11354",0,"Incongruent",-1,0.11354,"right",0,1.724
"S005","Perceptual",1,40.5850666666667,"1920x947",1.81824,144.23,"firefox","106.0.0","Windows 10","Ebbinghaus","2",9,"Ebbinghaus_perceptual_0000000_0.09909",0,"Incongruent",1,0.09909,"left",0,1.241
"S005","Perceptual",1,40.5850666666667,"1920x947",1.81824,144.23,"firefox","106.0.0","Windows 10","Ebbinghaus","2",10,"Ebbinghaus_perceptual_0000000_0.25702",0,"Incongruent",1,0.25702,"left",0,0.929
"S005","Perceptual",1,40.5850666666667,"1920x947",1.81824,144.23,"firefox","106.0.0","Windows 10","Ebbinghaus","2",11,"Ebbinghaus_perceptual_0000000_-0.18119",0,"Incongruent",-1,0.18119,"right",0,0.777
"S005","Perceptual",1,40.5850666666667,"1920x947",1.81824,144.23,"firefox","106.0.0","Windows 10","Ebbinghaus","2",12,"Ebbinghaus_perceptual_0000000_0.09000",0,"Incongruent",1,0.09,"left",0,1.111
"S005","Perceptual",1,40.5850666666667,"1920x947",1.81824,144.23,"firefox","106.0.0","Windows 10","Ebbinghaus","2",13,"Ebbinghaus_perceptual_0000000_-0.22792",0,"Incongruent",-1,0.22792,"right",0,0.874
"S005","Perceptual",1,40.5850666666667,"1920x947",1.81824,144.23,"firefox","106.0.0","Windows 10","Ebbinghaus","2",14,"Ebbinghaus_perceptual_0000000_0.18754",0,"Incongruent",1,0.18754,"left",0,0.899
"S005","Perceptual",1,40.5850666666667,"1920x947",1.81824,144.23,"firefox","106.0.0","Windows 10","Ebbinghaus","2",15,"Ebbinghaus_perceptual_0000000_0.21402",0,"Incongruent",1,0.21402,"left",0,0.902
"S005","Perceptual",1,40.5850666666667,"1920x947",1.81824,144.23,"firefox","106.0.0","Windows 10","Ebbinghaus","2",16,"Ebbinghaus_perceptual_0000000_-0.15689",0,"Incongruent",-1,0.15689,"right",0,1.124
"S005","Perceptual",1,40.5850666666667,"1920x947",1.81824,144.23,"firefox","106.0.0","Windows 10","Ebbinghaus","2",17,"Ebbinghaus_perceptual_0000000_-0.09449",0,"Incongruent",-1,0.09449,"right",0,2.004
"S005","Perceptual",1,40.5850666666667,"1920x947",1.81824,144.23,"firefox","106.0.0","Windows 10","Ebbinghaus","2",18,"Ebbinghaus_perceptual_0000000_0.17495",0,"Incongruent",1,0.17495,"left",0,0.698
"S005","Perceptual",1,40.5850666666667,"1920x947",1.81824,144.23,"firefox","106.0.0","Windows 10","Ebbinghaus","2",19,"Ebbinghaus_perceptual_0000000_-0.12372",0,"Incongruent",-1,0.12372,"right",0,1.113
"S005","Perceptual",1,40.5850666666667,"1920x947",1.81824,144.23,"firefox","106.0.0","Windows 10","Ebbinghaus","2",20,"Ebbinghaus_perceptual_0000000_0.11858",0,"Incongruent",1,0.11858,"left",0,0.588
"S005","Perceptual",1,40.5850666666667,"1920x947",1.81824,144.23,"firefox","106.0.0","Windows 10","Ebbinghaus","2",22,"Ebbinghaus_perceptual_0000000_0.22792",0,"Incongruent",1,0.22792,"left",0,0.916
"S005","Perceptual",1,40.5850666666667,"1920x947",1.81824,144.23,"firefox","106.0.0","Windows 10","Ebbinghaus","2",23,"Ebbinghaus_perceptual_0000000_-0.20724",0,"Incongruent",-1,0.20724,"right",0,0.993
"S005","Perceptual",1,40.5850666666667,"1920x947",1.81824,144.23,"firefox","106.0.0","Windows 10","Ebbinghaus","2",24,"Ebbinghaus_perceptual_0000000_0.27223",0,"Incongruent",1,0.27223,"left",0,0.672
"S005","Perceptual",1,40.5850666666667,"1920x947",1.81824,144.23,"firefox","106.0.0","Windows 10","Ebbinghaus","2",25,"Ebbinghaus_perceptual_0000000_-0.27223",0,"Incongruent",-1,0.27223,"right",0,0.796
"S005","Perceptual",1,40.5850666666667,"1920x947",1.81824,144.23,"firefox","106.0.0","Windows 10","Ebbinghaus","2",26,"Ebbinghaus_perceptual_0000000_0.13982",0,"Incongruent",1,0.13982,"left",0,0.634
"S005","Perceptual",1,40.5850666666667,"1920x947",1.81824,144.23,"firefox","106.0.0","Windows 10","Ebbinghaus","2",27,"Ebbinghaus_perceptual_0000000_0.24225",0,"Incongruent",1,0.24225,"left",0,0.594
"S005","Perceptual",1,40.5850666666667,"1920x947",1.81824,144.23,"firefox","106.0.0","Windows 10","Ebbinghaus","2",28,"Ebbinghaus_perceptual_0000000_-0.24225",0,"Incongruent",-1,0.24225,"right",0,0.77
"S005","Perceptual",1,40.5850666666667,"1920x947",1.81824,144.23,"firefox","106.0.0","Windows 10","Ebbinghaus","2",29,"Ebbinghaus_perceptual_0000000_0.10861",0,"Incongruent",1,0.10861,"left",0,1.782
"S005","Perceptual",1,40.5850666666667,"1920x947",1.81824,144.23,"firefox","106.0.0","Windows 10","Ebbinghaus","2",30,"Ebbinghaus_perceptual_0000000_-0.19399",0,"Incongruent",-1,0.19399,"right",0,0.716
"S005","Perceptual",1,40.5850666666667,"1920x947",1.81824,144.23,"firefox","106.0.0","Windows 10","Ebbinghaus","2",31,"Ebbinghaus_perceptual_0000000_0.12898",0,"Incongruent",1,0.12898,"left",0,0.868
"S005","Perceptual",1,40.5850666666667,"1920x947",1.81824,144.23,"firefox","106.0.0","Windows 10","Ebbinghaus","2",32,"Ebbinghaus_perceptual_0000000_-0.16882",0,"Incongruent",-1,0.16882,"right",0,0.549
"S005","Perceptual",1,40.5850666666667,"1920x947",1.81824,144.23,"firefox","106.0.0","Windows 10","VerticalHorizontal","2",2,"VerticalHorizontal_0000000_0.14851",0,"Incongruent",1,0.14851,"left",0,0.677
"S005","Perceptual",1,40.5850666666667,"1920x947",1.81824,144.23,"firefox","106.0.0","Windows 10","VerticalHorizontal","2",3,"VerticalHorizontal_0000000_0.13630",0,"Incongruent",1,0.1363,"left",0,0.752
"S005","Perceptual",1,40.5850666666667,"1920x947",1.81824,144.23,"firefox","106.0.0","Windows 10","VerticalHorizontal","2",4,"VerticalHorizontal_0000000_-0.10808",0,"Incongruent",-1,0.10808,"right",0,0.704
"S005","Perceptual",1,40.5850666666667,"1920x947",1.81824,144.23,"firefox","106.0.0","Windows 10","VerticalHorizontal","2",5,"VerticalHorizontal_0000000_0.11346",0,"Incongruent",1,0.11346,"left",0,0.732
"S005","Perceptual",1,40.5850666666667,"1920x947",1.81824,144.23,"firefox","106.0.0","Windows 10","VerticalHorizontal","2",7,"VerticalHorizontal_0000000_-0.20257",0,"Incongruent",-1,0.20257,"right",0,0.629
"S005","Perceptual",1,40.5850666666667,"1920x947",1.81824,144.23,"firefox","106.0.0","Windows 10","VerticalHorizontal","2",8,"VerticalHorizontal_0000000_0.05000",0,"Incongruent",1,0.05,"left",0,0.713
"S005","Perceptual",1,40.5850666666667,"1920x947",1.81824,144.23,"firefox","106.0.0","Windows 10","VerticalHorizontal","2",9,"VerticalHorizontal_0000000_-0.1678",0,"Incongruent",-1,0.1678,"right",0,0.815
"S005","Perceptual",1,40.5850666666667,"1920x947",1.81824,144.23,"firefox","106.0.0","Windows 10","VerticalHorizontal","2",10,"VerticalHorizontal_0000000_0.07406",0,"Incongruent",1,0.07406,"left",0,1.255
"S005","Perceptual",1,40.5850666666667,"1920x947",1.81824,144.23,"firefox","106.0.0","Windows 10","VerticalHorizontal","2",11,"VerticalHorizontal_0000000_-0.14234",0,"Incongruent",-1,0.14234,"right",0,0.844
"S005","Perceptual",1,40.5850666666667,"1920x947",1.81824,144.23,"firefox","106.0.0","Windows 10","VerticalHorizontal","2",12,"VerticalHorizontal_0000000_-0.17449",0,"Incongruent",-1,0.17449,"right",0,0.947
"S005","Perceptual",1,40.5850666666667,"1920x947",1.81824,144.23,"firefox","106.0.0","Windows 10","VerticalHorizontal","2",13,"VerticalHorizontal_0000000_0.17449",0,"Incongruent",1,0.17449,"left",0,0.96
"S005","Perceptual",1,40.5850666666667,"1920x947",1.81824,144.23,"firefox","106.0.0","Windows 10","VerticalHorizontal","2",14,"VerticalHorizontal_0000000_-0.06972",0,"Incongruent",-1,0.06972,"right",0,1.296
"S005","Perceptual",1,40.5850666666667,"1920x947",1.81824,144.23,"firefox","106.0.0","Windows 10","VerticalHorizontal","2",15,"VerticalHorizontal_0000000_0.10283",0,"Incongruent",1,0.10283,"left",0,1.405
"S005","Perceptual",1,40.5850666666667,"1920x947",1.81824,144.23,"firefox","106.0.0","Windows 10","VerticalHorizontal","2",16,"VerticalHorizontal_0000000_0.09271",0,"Incongruent",1,0.09271,"left",0,0.934
"S005","Perceptual",1,40.5850666666667,"1920x947",1.81824,144.23,"firefox","106.0.0","Windows 10","VerticalHorizontal","2",17,"VerticalHorizontal_0000000_0.20257",0,"Incongruent",1,0.20257,"left",0,0.648
"S005","Perceptual",1,40.5850666666667,"1920x947",1.81824,144.23,"firefox","106.0.0","Windows 10","VerticalHorizontal","2",18,"VerticalHorizontal_0000000_-0.0977",0,"Incongruent",-1,0.0977,"right",0,1.187
"S005","Perceptual",1,40.5850666666667,"1920x947",1.81824,144.23,"firefox","106.0.0","Windows 10","VerticalHorizontal","2",19,"VerticalHorizontal_0000000_0.21739",0,"Incongruent",1,0.21739,"left",0,0.91
"S005","Perceptual",1,40.5850666666667,"1920x947",1.81824,144.23,"firefox","106.0.0","Windows 10","VerticalHorizontal","2",20,"VerticalHorizontal_0000000_-0.21739",0,"Incongruent",-1,0.21739,"right",0,0.777
"S005","Perceptual",1,40.5850666666667,"1920x947",1.81824,144.23,"firefox","106.0.0","Windows 10","VerticalHorizontal","2",21,"VerticalHorizontal_0000000_-0.1304",0,"Incongruent",-1,0.1304,"right",0,1.38
"S005","Perceptual",1,40.5850666666667,"1920x947",1.81824,144.23,"firefox","106.0.0","Windows 10","VerticalHorizontal","2",22,"VerticalHorizontal_0000000_-0.15481",0,"Incongruent",-1,0.15481,"right",0,0.703
"S005","Perceptual",1,40.5850666666667,"1920x947",1.81824,144.23,"firefox","106.0.0","Windows 10","VerticalHorizontal","2",23,"VerticalHorizontal_0000000_0.18827",0,"Incongruent",1,0.18827,"left",0,1.089
"S005","Perceptual",1,40.5850666666667,"1920x947",1.81824,144.23,"firefox","106.0.0","Windows 10","VerticalHorizontal","2",24,"VerticalHorizontal_0000000_-0.18827",0,"Incongruent",-1,0.18827,"right",0,1.491
"S005","Perceptual",1,40.5850666666667,"1920x947",1.81824,144.23,"firefox","106.0.0","Windows 10","VerticalHorizontal","2",26,"VerticalHorizontal_0000000_0.12462",0,"Incongruent",1,0.12462,"left",0,1.235
"S005","Perceptual",1,40.5850666666667,"1920x947",1.81824,144.23,"firefox","106.0.0","Windows 10","VerticalHorizontal","2",27,"VerticalHorizontal_0000000_0.16124",0,"Incongruent",1,0.16124,"left",0,0.931
"S005","Perceptual",1,40.5850666666667,"1920x947",1.81824,144.23,"firefox","106.0.0","Windows 10","VerticalHorizontal","2",28,"VerticalHorizontal_0000000_-0.07853",0,"Incongruent",-1,0.07853,"right",0,1.975
"S005","Perceptual",1,40.5850666666667,"1920x947",1.81824,144.23,"firefox","106.0.0","Windows 10","VerticalHorizontal","2",29,"VerticalHorizontal_0000000_-0.11898",0,"Incongruent",-1,0.11898,"right",0,1.237
"S005","Perceptual",1,40.5850666666667,"1920x947",1.81824,144.23,"firefox","106.0.0","Windows 10","VerticalHorizontal","2",31,"VerticalHorizontal_0000000_-0.08785",0,"Incongruent",-1,0.08785,"right",0,1.636
"S009","Perceptual",1,35.33825,"1536x726",1.115136,60.12,"chrome","107.0.0","Windows 10","MullerLyer","1",1,"MullerLyer_perceptual_0000000_-0.11718",0,"Incongruent",-1,0.11718,"down",0,0.638
"S009","Perceptual",1,35.33825,"1536x726",1.115136,60.12,"chrome","107.0.0","Windows 10","MullerLyer","1",2,"MullerLyer_perceptual_0000000_-0.2350",0,"Incongruent",-1,0.235,"down",0,0.524
"S009","Perceptual",1,35.33825,"1536x726",1.115136,60.12,"chrome","107.0.0","Windows 10","MullerLyer","1",3,"MullerLyer_perceptual_0000000_0.09407",0,"Incongruent",1,0.09407,"up",0,0.706
"S009","Perceptual",1,35.33825,"1536x726",1.115136,60.12,"chrome","107.0.0","Windows 10","MullerLyer","1",4,"MullerLyer_perceptual_0000000_0.16134",0,"Incongruent",1,0.16134,"up",0,0.742
"S009","Perceptual",1,35.33825,"1536x726",1.115136,60.12,"chrome","107.0.0","Windows 10","MullerLyer","1",5,"MullerLyer_perceptual_0000000_-0.29607",0,"Incongruent",-1,0.29607,"down",0,0.569
"S009","Perceptual",1,35.33825,"1536x726",1.115136,60.12,"chrome","107.0.0","Windows 10","MullerLyer","1",6,"MullerLyer_perceptual_0000000_-0.3500",0,"Incongruent",-1,0.35,"down",0,0.474
"S009","Perceptual",1,35.33825,"1536x726",1.115136,60.12,"chrome","107.0.0","Windows 10","MullerLyer","1",7,"MullerLyer_perceptual_0000000_-0.0500",0,"Incongruent",-1,0.05,"down",0,0.97
"S009","Perceptual",1,35.33825,"1536x726",1.115136,60.12,"chrome","107.0.0","Windows 10","MullerLyer","1",8,"MullerLyer_perceptual_0000000_-0.2708",0,"Incongruent",-1,0.2708,"down",0,0.58
"S009","Perceptual",1,35.33825,"1536x726",1.115136,60.12,"chrome","107.0.0","Windows 10","MullerLyer","1",9,"MullerLyer_perceptual_0000000_-0.32247",0,"Incongruent",-1,0.32247,"down",0,0.558
"S009","Perceptual",1,35.33825,"1536x726",1.115136,60.12,"chrome","107.0.0","Windows 10","MullerLyer","1",10,"MullerLyer_perceptual_0000000_0.27080",0,"Incongruent",1,0.2708,"up",0,0.57
"S009","Perceptual",1,35.33825,"1536x726",1.115136,60.12,"chrome","107.0.0","Windows 10","MullerLyer","1",11,"MullerLyer_perceptual_0000000_0.35000",0,"Incongruent",1,0.35,"up",0,0.417
"S009","Perceptual",1,35.33825,"1536x726",1.115136,60.12,"chrome","107.0.0","Windows 10","MullerLyer","1",12,"MullerLyer_perceptual_0000000_0.32247",0,"Incongruent",1,0.32247,"up",0,0.576
"S009","Perceptual",1,35.33825,"1536x726",1.115136,60.12,"chrome","107.0.0","Windows 10","MullerLyer","1",13,"MullerLyer_perceptual_0000000_-0.15194",0,"Incongruent",-1,0.15194,"down",0,0.832
"S009","Perceptual",1,35.33825,"1536x726",1.115136,60.12,"chrome","107.0.0","Windows 10","MullerLyer","1",14,"MullerLyer_perceptual_0000000_-0.19122",0,"Incongruent",-1,0.19122,"down",0,0.516
"S009","Perceptual",1,35.33825,"1536x726",1.115136,60.12,"chrome","107.0.0","Windows 10","MullerLyer","1",15,"MullerLyer_perceptual_0000000_0.06719",0,"Incongruent",1,0.06719,"up",0,0.736
"S009","Perceptual",1,35.33825,"1536x726",1.115136,60.12,"chrome","107.0.0","Windows 10","MullerLyer","1",17,"MullerLyer_perceptual_0000000_-0.21255",0,"Incongruent",-1,0.21255,"down",0,0.539
"S009","Perceptual",1,35.33825,"1536x726",1.115136,60.12,"chrome","107.0.0","Windows 10","MullerLyer","1",18,"MullerLyer_perceptual_0000000_0.29607",0,"Incongruent",1,0.29607,"up",0,0.565
"S009","Perceptual",1,35.33825,"1536x726",1.115136,60.12,"chrome","107.0.0","Windows 10","MullerLyer","1",19,"MullerLyer_perceptual_0000000_-0.17102",0,"Incongruent",-1,0.17102,"down",0,0.556
"S009","Perceptual",1,35.33825,"1536x726",1.115136,60.12,"chrome","107.0.0","Windows 10","MullerLyer","1",20,"MullerLyer_perceptual_0000000_-0.08693",0,"Incongruent",-1,0.08693,"down",0,0.576
"S009","Perceptual",1,35.33825,"1536x726",1.115136,60.12,"chrome","107.0.0","Windows 10","MullerLyer","1",21,"MullerLyer_perceptual_0000000_0.24665",0,"Incongruent",1,0.24665,"up",0,0.647
"S009","Perceptual",1,35.33825,"1536x726",1.115136,60.12,"chrome","107.0.0","Windows 10","MullerLyer","1",22,"MullerLyer_perceptual_0000000_0.22363",0,"Incongruent",1,0.22363,"up",0,0.769
"S009","Perceptual",1,35.33825,"1536x726",1.115136,60.12,"chrome","107.0.0","Windows 10","MullerLyer","1",23,"MullerLyer_perceptual_0000000_-0.07349",0,"Incongruent",-1,0.07349,"down",0,0.651
"S009","Perceptual",1,35.33825,"1536x726",1.115136,60.12,"chrome","107.0.0","Windows 10","MullerLyer","1",24,"MullerLyer_perceptual_0000000_0.20174",0,"Incongruent",1,0.20174,"up",0,0.636
"S009","Perceptual",1,35.33825,"1536x726",1.115136,60.12,"chrome","107.0.0","Windows 10","MullerLyer","1",25,"MullerLyer_perceptual_0000000_0.12545",0,"Incongruent",1,0.12545,"up",0,0.789
"S009","Perceptual",1,35.33825,"1536x726",1.115136,60.12,"chrome","107.0.0","Windows 10","MullerLyer","1",26,"MullerLyer_perceptual_0000000_0.14283",0,"Incongruent",1,0.14283,"up",0,0.596
"S009","Perceptual",1,35.33825,"1536x726",1.115136,60.12,"chrome","107.0.0","Windows 10","MullerLyer","1",27,"MullerLyer_perceptual_0000000_0.10919",0,"Incongruent",1,0.10919,"down",1,0.862
"S009","Perceptual",1,35.33825,"1536x726",1.115136,60.12,"chrome","107.0.0","Windows 10","MullerLyer","1",28,"MullerLyer_perceptual_0000000_-0.06118",0,"Incongruent",-1,0.06118,"down",0,0.672
"S009","Perceptual",1,35.33825,"1536x726",1.115136,60.12,"chrome","107.0.0","Windows 10","MullerLyer","1",29,"MullerLyer_perceptual_0000000_0.08007",0,"Incongruent",1,0.08007,"up",0,0.978
"S009","Perceptual",1,35.33825,"1536x726",1.115136,60.12,"chrome","107.0.0","Windows 10","MullerLyer","1",30,"MullerLyer_perceptual_0000000_-0.1340",0,"Incongruent",-1,0.134,"down",0,0.712
"S009","Perceptual",1,35.33825,"1536x726",1.115136,60.12,"chrome","107.0.0","Windows 10","MullerLyer","1",31,"MullerLyer_perceptual_0000000_0.18098",0,"Incongruent",1,0.18098,"up",0,0.567
"S009","Perceptual",1,35.33825,"1536x726",1.115136,60.12,"chrome","107.0.0","Windows 10","MullerLyer","1",32,"MullerLyer_perceptual_0000000_-0.10149",0,"Incongruent",-1,0.10149,"down",0,0.819
"S009","Perceptual",1,35.33825,"1536x726",1.115136,60.12,"chrome","107.0.0","Windows 10","Ebbinghaus","1",1,"Ebbinghaus_perceptual_0000000_-0.15109",0,"Incongruent",-1,0.15109,"right",0,0.608
"S009","Perceptual",1,35.33825,"1536x726",1.115136,60.12,"chrome","107.0.0","Windows 10","Ebbinghaus","1",2,"Ebbinghaus_perceptual_0000000_-0.26457",0,"Incongruent",-1,0.26457,"right",0,0.556
"S009","Perceptual",1,35.33825,"1536x726",1.115136,60.12,"chrome","107.0.0","Windows 10","Ebbinghaus","1",3,"Ebbinghaus_perceptual_0000000_0.19399",0,"Incongruent",1,0.19399,"left",0,0.472
"S009","Perceptual",1,35.33825,"1536x726",1.115136,60.12,"chrome","107.0.0","Windows 10","Ebbinghaus","1",4,"Ebbinghaus_perceptual_0000000_0.24958",0,"Incongruent",1,0.24958,"left",0,0.513
"S009","Perceptual",1,35.33825,"1536x726",1.115136,60.12,"chrome","107.0.0","Windows 10","Ebbinghaus","1",5,"Ebbinghaus_perceptual_0000000_0.18119",0,"Incongruent",1,0.18119,"left",0,0.558
"S009","Perceptual",1,35.33825,"1536x726",1.115136,60.12,"chrome","107.0.0","Windows 10","Ebbinghaus","1",6,"Ebbinghaus_perceptual_0000000_-0.18754",0,"Incongruent",-1,0.18754,"right",0,0.522
"S009","Perceptual",1,35.33825,"1536x726",1.115136,60.12,"chrome","107.0.0","Windows 10","Ebbinghaus","1",7,"Ebbinghaus_perceptual_0000000_0.16882",0,"Incongruent",1,0.16882,"left",0,0.602
"S009","Perceptual",1,35.33825,"1536x726",1.115136,60.12,"chrome","107.0.0","Windows 10","Ebbinghaus","1",8,"Ebbinghaus_perceptual_0000000_-0.20056",0,"Incongruent",-1,0.20056,"right",0,0.652
"S009","Perceptual",1,35.33825,"1536x726",1.115136,60.12,"chrome","107.0.0","Windows 10","Ebbinghaus","1",9,"Ebbinghaus_perceptual_0000000_-0.2800",0,"Incongruent",-1,0.28,"right",0,0.552
"S009","Perceptual",1,35.33825,"1536x726",1.115136,60.12,"chrome","107.0.0","Windows 10","Ebbinghaus","1",10,"Ebbinghaus_perceptual_0000000_-0.10861",0,"Incongruent",-1,0.10861,"right",0,0.61
"S009","Perceptual",1,35.33825,"1536x726",1.115136,60.12,"chrome","107.0.0","Windows 10","Ebbinghaus","1",11,"Ebbinghaus_perceptual_0000000_0.22091",0,"Incongruent",1,0.22091,"left",0,0.454
"S009","Perceptual",1,35.33825,"1536x726",1.115136,60.12,"chrome","107.0.0","Windows 10","Ebbinghaus","1",12,"Ebbinghaus_perceptual_0000000_-0.1628",0,"Incongruent",-1,0.1628,"right",0,0.589
"S009","Perceptual",1,35.33825,"1536x726",1.115136,60.12,"chrome","107.0.0","Windows 10","Ebbinghaus","1",13,"Ebbinghaus_perceptual_0000000_0.28000",0,"Incongruent",1,0.28,"left",0,0.399
"S009","Perceptual",1,35.33825,"1536x726",1.115136,60.12,"chrome","107.0.0","Windows 10","Ebbinghaus","1",14,"Ebbinghaus_perceptual_0000000_0.12372",0,"Incongruent",1,0.12372,"left",0,0.534
"S009","Perceptual",1,35.33825,"1536x726",1.115136,60.12,"chrome","107.0.0","Windows 10","Ebbinghaus","1",15,"Ebbinghaus_perceptual_0000000_-0.12898",0,"Incongruent",-1,0.12898,"right",0,0.643
"S009","Perceptual",1,35.33825,"1536x726",1.115136,60.12,"chrome","107.0.0","Windows 10","Ebbinghaus","1",16,"Ebbinghaus_perceptual_0000000_-0.0900",0,"Incongruent",-1,0.09,"right",0,0.699
"S009","Perceptual",1,35.33825,"1536x726",1.115136,60.12,"chrome","107.0.0","Windows 10","Ebbinghaus","1",17,"Ebbinghaus_perceptual_0000000_0.14540",0,"Incongruent",1,0.1454,"left",0,0.497
"S009","Perceptual",1,35.33825,"1536x726",1.115136,60.12,"chrome","107.0.0","Windows 10","Ebbinghaus","1",18,"Ebbinghaus_perceptual_0000000_-0.21402",0,"Incongruent",-1,0.21402,"right",0,0.796
"S009","Perceptual",1,35.33825,"1536x726",1.115136,60.12,"chrome","107.0.0","Windows 10","Ebbinghaus","1",19,"Ebbinghaus_perceptual_0000000_-0.09909",0,"Incongruent",-1,0.09909,"right",0,0.715
"S009","Perceptual",1,35.33825,"1536x726",1.115136,60.12,"chrome","107.0.0","Windows 10","Ebbinghaus","1",20,"Ebbinghaus_perceptual_0000000_0.11354",0,"Incongruent",1,0.11354,"left",0,0.634
"S009","Perceptual",1,35.33825,"1536x726",1.115136,60.12,"chrome","107.0.0","Windows 10","Ebbinghaus","1",21,"Ebbinghaus_perceptual_0000000_-0.23503",0,"Incongruent",-1,0.23503,"right",0,0.611
"S009","Perceptual",1,35.33825,"1536x726",1.115136,60.12,"chrome","107.0.0","Windows 10","Ebbinghaus","1",22,"Ebbinghaus_perceptual_0000000_0.09449",0,"Incongruent",1,0.09449,"left",0,0.638
"S009","Perceptual",1,35.33825,"1536x726",1.115136,60.12,"chrome","107.0.0","Windows 10","Ebbinghaus","1",23,"Ebbinghaus_perceptual_0000000_-0.13982",0,"Incongruent",-1,0.13982,"right",0,0.619
"S009","Perceptual",1,35.33825,"1536x726",1.115136,60.12,"chrome","107.0.0","Windows 10","Ebbinghaus","1",24,"Ebbinghaus_perceptual_0000000_0.15689",0,"Incongruent",1,0.15689,"left",0,0.527
"S009","Perceptual",1,35.33825,"1536x726",1.115136,60.12,"chrome","107.0.0","Windows 10","Ebbinghaus","1",25,"Ebbinghaus_perceptual_0000000_0.13434",0,"Incongruent",1,0.13434,"left",0,0.517
"S009","Perceptual",1,35.33825,"1536x726",1.115136,60.12,"chrome","107.0.0","Windows 10","Ebbinghaus","1",26,"Ebbinghaus_perceptual_0000000_0.23503",0,"Incongruent",1,0.23503,"left",0,0.593
"S009","Perceptual",1,35.33825,"1536x726",1.115136,60.12,"chrome","107.0.0","Windows 10","Ebbinghaus","1",27,"Ebbinghaus_perceptual_0000000_0.10380",0,"Incongruent",1,0.1038,"left",0,0.663
"S009","Perceptual",1,35.33825,"1536x726",1.115136,60.12,"chrome","107.0.0","Windows 10","Ebbinghaus","1",28,"Ebbinghaus_perceptual_0000000_-0.24958",0,"Incongruent",-1,0.24958,"right",0,0.478
"S009","Perceptual",1,35.33825,"1536x726",1.115136,60.12,"chrome","107.0.0","Windows 10","Ebbinghaus","1",29,"Ebbinghaus_perceptual_0000000_-0.11858",0,"Incongruent",-1,0.11858,"right",0,0.548
"S009","Perceptual",1,35.33825,"1536x726",1.115136,60.12,"chrome","107.0.0","Windows 10","Ebbinghaus","1",30,"Ebbinghaus_perceptual_0000000_-0.17495",0,"Incongruent",-1,0.17495,"right",0,0.459
"S009","Perceptual",1,35.33825,"1536x726",1.115136,60.12,"chrome","107.0.0","Windows 10","Ebbinghaus","1",31,"Ebbinghaus_perceptual_0000000_0.20724",0,"Incongruent",1,0.20724,"left",0,0.449
"S009","Perceptual",1,35.33825,"1536x726",1.115136,60.12,"chrome","107.0.0","Windows 10","Ebbinghaus","1",32,"Ebbinghaus_perceptual_0000000_0.26457",0,"Incongruent",1,0.26457,"left",0,0.432
"S009","Perceptual",1,35.33825,"1536x726",1.115136,60.12,"chrome","107.0.0","Windows 10","VerticalHorizontal","1",1,"VerticalHorizontal_0000000_0.08785",0,"Incongruent",1,0.08785,"left",0,0.638
"S009","Perceptual",1,35.33825,"1536x726",1.115136,60.12,"chrome","107.0.0","Windows 10","VerticalHorizontal","1",2,"VerticalHorizontal_0000000_0.05368",0,"Incongruent",1,0.05368,"left",0,0.803
"S009","Perceptual",1,35.33825,"1536x726",1.115136,60.12,"chrome","107.0.0","Windows 10","VerticalHorizontal","1",3,"VerticalHorizontal_0000000_-0.06552",0,"Incongruent",-1,0.06552,"right",0,0.898
"S009","Perceptual",1,35.33825,"1536x726",1.115136,60.12,"chrome","107.0.0","Windows 10","VerticalHorizontal","1",4,"VerticalHorizontal_0000000_0.15481",0,"Incongruent",1,0.15481,"left",0,0.873
"S009","Perceptual",1,35.33825,"1536x726",1.115136,60.12,"chrome","107.0.0","Windows 10","VerticalHorizontal","1",5,"VerticalHorizontal_0000000_0.11898",0,"Incongruent",1,0.11898,"left",0,0.69
"S009","Perceptual",1,35.33825,"1536x726",1.115136,60.12,"chrome","107.0.0","Windows 10","VerticalHorizontal","1",6,"VerticalHorizontal_0000000_0.14234",0,"Incongruent",1,0.14234,"left",0,0.951
"S009","Perceptual",1,35.33825,"1536x726",1.115136,60.12,"chrome","107.0.0","Windows 10","VerticalHorizontal","1",7,"VerticalHorizontal_0000000_0.18132",0,"Incongruent",1,0.18132,"left",0,0.493
"S009","Perceptual",1,35.33825,"1536x726",1.115136,60.12,"chrome","107.0.0","Windows 10","VerticalHorizontal","1",8,"VerticalHorizontal_0000000_-0.0575",0,"Incongruent",-1,0.0575,"right",0,0.731
"S009","Perceptual",1,35.33825,"1536x726",1.115136,60.12,"chrome","107.0.0","Windows 10","VerticalHorizontal","1",9,"VerticalHorizontal_0000000_-0.14851",0,"Incongruent",-1,0.14851,"right",0,0.702
"S009","Perceptual",1,35.33825,"1536x726",1.115136,60.12,"chrome","107.0.0","Windows 10","VerticalHorizontal","1",10,"VerticalHorizontal_0000000_-0.18132",0,"Incongruent",-1,0.18132,"right",0,0.636
"S009","Perceptual",1,35.33825,"1536x726",1.115136,60.12,"chrome","107.0.0","Windows 10","VerticalHorizontal","1",11,"VerticalHorizontal_0000000_0.09770",0,"Incongruent",1,0.0977,"left",0,0.593
"S009","Perceptual",1,35.33825,"1536x726",1.115136,60.12,"chrome","107.0.0","Windows 10","VerticalHorizontal","1",12,"VerticalHorizontal_0000000_0.22500",0,"Incongruent",1,0.225,"left",0,0.542
"S009","Perceptual",1,35.33825,"1536x726",1.115136,60.12,"chrome","107.0.0","Windows 10","VerticalHorizontal","1",13,"VerticalHorizontal_0000000_-0.10283",0,"Incongruent",-1,0.10283,"right",0,0.597
"S009","Perceptual",1,35.33825,"1536x726",1.115136,60.12,"chrome","107.0.0","Windows 10","VerticalHorizontal","1",14,"VerticalHorizontal_0000000_-0.11346",0,"Incongruent",-1,0.11346,"right",0,0.712
"S009","Perceptual",1,35.33825,"1536x726",1.115136,60.12,"chrome","107.0.0","Windows 10","VerticalHorizontal","1",15,"VerticalHorizontal_0000000_0.16780",0,"Incongruent",1,0.1678,"left",0,0.537
"S009","Perceptual",1,35.33825,"1536x726",1.115136,60.12,"chrome","107.0.0","Windows 10","VerticalHorizontal","1",16,"VerticalHorizontal_0000000_-0.09271",0,"Incongruent",-1,0.09271,"right",0,0.643
"S009","Perceptual",1,35.33825,"1536x726",1.115136,60.12,"chrome","107.0.0","Windows 10","VerticalHorizontal","1",17,"VerticalHorizontal_0000000_-0.19535",0,"Incongruent",-1,0.19535,"right",0,0.605
"S009","Perceptual",1,35.33825,"1536x726",1.115136,60.12,"chrome","107.0.0","Windows 10","VerticalHorizontal","1",18,"VerticalHorizontal_0000000_-0.16124",0,"Incongruent",-1,0.16124,"right",0,0.56
"S009","Perceptual",1,35.33825,"1536x726",1.115136,60.12,"chrome","107.0.0","Windows 10","VerticalHorizontal","1",19,"VerticalHorizontal_0000000_0.06972",0,"Incongruent",1,0.06972,"left",0,0.523
"S009","Perceptual",1,35.33825,"1536x726",1.115136,60.12,"chrome","107.0.0","Windows 10","VerticalHorizontal","1",20,"VerticalHorizontal_0000000_-0.12462",0,"Incongruent",-1,0.12462,"right",0,0.494
"S009","Perceptual",1,35.33825,"1536x726",1.115136,60.12,"chrome","107.0.0","Windows 10","VerticalHorizontal","1",21,"VerticalHorizontal_0000000_0.10808",0,"Incongruent",1,0.10808,"left",0,0.638
"S009","Perceptual",1,35.33825,"1536x726",1.115136,60.12,"chrome","107.0.0","Windows 10","VerticalHorizontal","1",22,"VerticalHorizontal_0000000_0.19535",0,"Incongruent",1,0.19535,"left",0,0.534
"S009","Perceptual",1,35.33825,"1536x726",1.115136,60.12,"chrome","107.0.0","Windows 10","VerticalHorizontal","1",23,"VerticalHorizontal_0000000_-0.08312",0,"Incongruent",-1,0.08312,"right",0,0.626
"S009","Perceptual",1,35.33825,"1536x726",1.115136,60.12,"chrome","107.0.0","Windows 10","VerticalHorizontal","1",24,"VerticalHorizontal_0000000_0.20992",0,"Incongruent",1,0.20992,"left",0,0.501
"S009","Perceptual",1,35.33825,"1536x726",1.115136,60.12,"chrome","107.0.0","Windows 10","VerticalHorizontal","1",25,"VerticalHorizontal_0000000_-0.1363",0,"Incongruent",-1,0.1363,"right",0,0.604
"S009","Perceptual",1,35.33825,"1536x726",1.115136,60.12,"chrome","107.0.0","Windows 10","VerticalHorizontal","1",26,"VerticalHorizontal_0000000_-0.2250",0,"Incongruent",-1,0.225,"right",0,0.649
"S009","Perceptual",1,35.33825,"1536x726",1.115136,60.12,"chrome","107.0.0","Windows 10","VerticalHorizontal","1",27,"VerticalHorizontal_0000000_0.13040",0,"Incongruent",1,0.1304,"left",0,0.495
"S009","Perceptual",1,35.33825,"1536x726",1.115136,60.12,"chrome","107.0.0","Windows 10","VerticalHorizontal","1",28,"VerticalHorizontal_0000000_-0.0500",0,"Incongruent",-1,0.05,"right",0,0.719
"S009","Perceptual",1,35.33825,"1536x726",1.115136,60.12,"chrome","107.0.0","Windows 10","VerticalHorizontal","1",29,"VerticalHorizontal_0000000_-0.20992",0,"Incongruent",-1,0.20992,"right",0,0.473
"S009","Perceptual",1,35.33825,"1536x726",1.115136,60.12,"chrome","107.0.0","Windows 10","VerticalHorizontal","1",30,"VerticalHorizontal_0000000_0.07853",0,"Incongruent",1,0.07853,"left",0,0.704
"S009","Perceptual",1,35.33825,"1536x726",1.115136,60.12,"chrome","107.0.0","Windows 10","VerticalHorizontal","1",31,"VerticalHorizontal_0000000_-0.07406",0,"Incongruent",-1,0.07406,"right",0,0.616
"S009","Perceptual",1,35.33825,"1536x726",1.115136,60.12,"chrome","107.0.0","Windows 10","VerticalHorizontal","1",32,"VerticalHorizontal_0000000_0.06144",0,"Incongruent",1,0.06144,"left",0,0.807
"S009","Perceptual",1,35.33825,"1536x726",1.115136,60.12,"chrome","107.0.0","Windows 10","MullerLyer","2",1,"MullerLyer_perceptual_0000000_0.13400",0,"Incongruent",1,0.134,"up",0,0.644
"S009","Perceptual",1,35.33825,"1536x726",1.115136,60.12,"chrome","107.0.0","Windows 10","MullerLyer","2",2,"MullerLyer_perceptual_0000000_-0.18098",0,"Incongruent",-1,0.18098,"down",0,0.441
"S009","Perceptual",1,35.33825,"1536x726",1.115136,60.12,"chrome","107.0.0","Windows 10","MullerLyer","2",3,"MullerLyer_perceptual_0000000_0.33609",0,"Incongruent",1,0.33609,"up",0,0.454
"S009","Perceptual",1,35.33825,"1536x726",1.115136,60.12,"chrome","107.0.0","Windows 10","MullerLyer","2",4,"MullerLyer_perceptual_0000000_0.07349",0,"Incongruent",1,0.07349,"up",0,0.886
"S009","Perceptual",1,35.33825,"1536x726",1.115136,60.12,"chrome","107.0.0","Windows 10","MullerLyer","2",5,"MullerLyer_perceptual_0000000_0.05000",0,"Incongruent",1,0.05,"down",1,0.729
"S009","Perceptual",1,35.33825,"1536x726",1.115136,60.12,"chrome","107.0.0","Windows 10","MullerLyer","2",6,"MullerLyer_perceptual_0000000_-0.05545",0,"Incongruent",-1,0.05545,"down",0,0.875
"S009","Perceptual",1,35.33825,"1536x726",1.115136,60.12,"chrome","107.0.0","Windows 10","MullerLyer","2",7,"MullerLyer_perceptual_0000000_0.15194",0,"Incongruent",1,0.15194,"up",0,0.56
"S009","Perceptual",1,35.33825,"1536x726",1.115136,60.12,"chrome","107.0.0","Windows 10","MullerLyer","2",8,"MullerLyer_perceptual_0000000_-0.33609",0,"Incongruent",-1,0.33609,"down",0,0.474
"S009","Perceptual",1,35.33825,"1536x726",1.115136,60.12,"chrome","107.0.0","Windows 10","MullerLyer","2",9,"MullerLyer_perceptual_0000000_-0.16134",0,"Incongruent",-1,0.16134,"down",0,0.465
"S009","Perceptual",1,35.33825,"1536x726",1.115136,60.12,"chrome","107.0.0","Windows 10","MullerLyer","2",10,"MullerLyer_perceptual_0000000_-0.10919",0,"Incongruent",-1,0.10919,"down",0,0.598
"S009","Perceptual",1,35.33825,"1536x726",1.115136,60.12,"chrome","107.0.0","Windows 10","MullerLyer","2",11,"MullerLyer_perceptual_0000000_0.30913",0,"Incongruent",1,0.30913,"up",0,0.555
"S009","Perceptual",1,35.33825,"1536x726",1.115136,60.12,"chrome","107.0.0","Windows 10","MullerLyer","2",12,"MullerLyer_perceptual_0000000_-0.28329",0,"Incongruent",-1,0.28329,"down",0,0.474
"S009","Perceptual",1,35.33825,"1536x726",1.115136,60.12,"chrome","107.0.0","Windows 10","MullerLyer","2",14,"MullerLyer_perceptual_0000000_0.21255",0,"Incongruent",1,0.21255,"up",0,1.002
"S009","Perceptual",1,35.33825,"1536x726",1.115136,60.12,"chrome","107.0.0","Windows 10","MullerLyer","2",16,"MullerLyer_perceptual_0000000_0.10149",0,"Incongruent",1,0.10149,"up",0,0.925
"S009","Perceptual",1,35.33825,"1536x726",1.115136,60.12,"chrome","107.0.0","Windows 10","MullerLyer","2",17,"MullerLyer_perceptual_0000000_-0.30913",0,"Incongruent",-1,0.30913,"down",0,0.742
"S009","Perceptual",1,35.33825,"1536x726",1.115136,60.12,"chrome","107.0.0","Windows 10","MullerLyer","2",18,"MullerLyer_perceptual_0000000_0.23500",0,"Incongruent",1,0.235,"up",0,0.615
"S009","Perceptual",1,35.33825,"1536x726",1.115136,60.12,"chrome","107.0.0","Windows 10","MullerLyer","2",19,"MullerLyer_perceptual_0000000_0.25858",0,"Incongruent",1,0.25858,"up",0,0.628
"S009","Perceptual",1,35.33825,"1536x726",1.115136,60.12,"chrome","107.0.0","Windows 10","MullerLyer","2",20,"MullerLyer_perceptual_0000000_0.28329",0,"Incongruent",1,0.28329,"up",0,0.538
"S009","Perceptual",1,35.33825,"1536x726",1.115136,60.12,"chrome","107.0.0","Windows 10","MullerLyer","2",21,"MullerLyer_perceptual_0000000_-0.09407",0,"Incongruent",-1,0.09407,"down",0,0.486
"S009","Perceptual",1,35.33825,"1536x726",1.115136,60.12,"chrome","107.0.0","Windows 10","MullerLyer","2",22,"MullerLyer_perceptual_0000000_-0.12545",0,"Incongruent",-1,0.12545,"down",0,0.8
"S009","Perceptual",1,35.33825,"1536x726",1.115136,60.12,"chrome","107.0.0","Windows 10","MullerLyer","2",23,"MullerLyer_perceptual_0000000_-0.14283",0,"Incongruent",-1,0.14283,"down",0,0.879
"S009","Perceptual",1,35.33825,"1536x726",1.115136,60.12,"chrome","107.0.0","Windows 10","MullerLyer","2",24,"MullerLyer_perceptual_0000000_-0.22363",0,"Incongruent",-1,0.22363,"down",0,0.566
"S009","Perceptual",1,35.33825,"1536x726",1.115136,60.12,"chrome","107.0.0","Windows 10","MullerLyer","2",25,"MullerLyer_perceptual_0000000_0.08693",0,"Incongruent",1,0.08693,"up",0,1.057
"S009","Perceptual",1,35.33825,"1536x726",1.115136,60.12,"chrome","107.0.0","Windows 10","MullerLyer","2",26,"MullerLyer_perceptual_0000000_-0.24665",0,"Incongruent",-1,0.24665,"down",0,0.651
"S009","Perceptual",1,35.33825,"1536x726",1.115136,60.12,"chrome","107.0.0","Windows 10","MullerLyer","2",27,"MullerLyer_perceptual_0000000_0.06118",0,"Incongruent",1,0.06118,"up",0,0.814
"S009","Perceptual",1,35.33825,"1536x726",1.115136,60.12,"chrome","107.0.0","Windows 10","MullerLyer","2",28,"MullerLyer_perceptual_0000000_-0.20174",0,"Incongruent",-1,0.20174,"down",0,0.506
"S009","Perceptual",1,35.33825,"1536x726",1.115136,60.12,"chrome","107.0.0","Windows 10","MullerLyer","2",29,"MullerLyer_perceptual_0000000_0.17102",0,"Incongruent",1,0.17102,"up",0,0.846
"S009","Perceptual",1,35.33825,"1536x726",1.115136,60.12,"chrome","107.0.0","Windows 10","MullerLyer","2",30,"MullerLyer_perceptual_0000000_0.19122",0,"Incongruent",1,0.19122,"up",0,0.577
"S009","Perceptual",1,35.33825,"1536x726",1.115136,60.12,"chrome","107.0.0","Windows 10","MullerLyer","2",31,"MullerLyer_perceptual_0000000_-0.06719",0,"Incongruent",-1,0.06719,"down",0,0.492
"S009","Perceptual",1,35.33825,"1536x726",1.115136,60.12,"chrome","107.0.0","Windows 10","MullerLyer","2",32,"MullerLyer_perceptual_0000000_-0.25858",0,"Incongruent",-1,0.25858,"down",0,0.452
"S009","Perceptual",1,35.33825,"1536x726",1.115136,60.12,"chrome","107.0.0","Windows 10","Ebbinghaus","2",1,"Ebbinghaus_perceptual_0000000_-0.12372",0,"Incongruent",-1,0.12372,"right",0,0.768
"S009","Perceptual",1,35.33825,"1536x726",1.115136,60.12,"chrome","107.0.0","Windows 10","Ebbinghaus","2",2,"Ebbinghaus_perceptual_0000000_0.17495",0,"Incongruent",1,0.17495,"left",0,0.586
"S009","Perceptual",1,35.33825,"1536x726",1.115136,60.12,"chrome","107.0.0","Windows 10","Ebbinghaus","2",3,"Ebbinghaus_perceptual_0000000_0.15109",0,"Incongruent",1,0.15109,"left",0,0.707
"S009","Perceptual",1,35.33825,"1536x726",1.115136,60.12,"chrome","107.0.0","Windows 10","Ebbinghaus","2",4,"Ebbinghaus_perceptual_0000000_-0.16882",0,"Incongruent",-1,0.16882,"right",0,0.648
"S009","Perceptual",1,35.33825,"1536x726",1.115136,60.12,"chrome","107.0.0","Windows 10","Ebbinghaus","2",5,"Ebbinghaus_perceptual_0000000_0.12898",0,"Incongruent",1,0.12898,"left",0,0.655
"S009","Perceptual",1,35.33825,"1536x726",1.115136,60.12,"chrome","107.0.0","Windows 10","Ebbinghaus","2",6,"Ebbinghaus_perceptual_0000000_-0.18119",0,"Incongruent",-1,0.18119,"right",0,0.562
"S009","Perceptual",1,35.33825,"1536x726",1.115136,60.12,"chrome","107.0.0","Windows 10","Ebbinghaus","2",7,"Ebbinghaus_perceptual_0000000_0.21402",0,"Incongruent",1,0.21402,"left",0,0.547
"S009","Perceptual",1,35.33825,"1536x726",1.115136,60.12,"chrome","107.0.0","Windows 10","Ebbinghaus","2",8,"Ebbinghaus_perceptual_0000000_0.27223",0,"Incongruent",1,0.27223,"left",0,0.617
"S009","Perceptual",1,35.33825,"1536x726",1.115136,60.12,"chrome","107.0.0","Windows 10","Ebbinghaus","2",9,"Ebbinghaus_perceptual_0000000_-0.25702",0,"Incongruent",-1,0.25702,"right",0,0.455
"S009","Perceptual",1,35.33825,"1536x726",1.115136,60.12,"chrome","107.0.0","Windows 10","Ebbinghaus","2",10,"Ebbinghaus_perceptual_0000000_-0.09449",0,"Incongruent",-1,0.09449,"right",0,0.653
"S009","Perceptual",1,35.33825,"1536x726",1.115136,60.12,"chrome","107.0.0","Windows 10","Ebbinghaus","2",11,"Ebbinghaus_perceptual_0000000_0.10861",0,"Incongruent",1,0.10861,"left",0,0.58
"S009","Perceptual",1,35.33825,"1536x726",1.115136,60.12,"chrome","107.0.0","Windows 10","Ebbinghaus","2",12,"Ebbinghaus_perceptual_0000000_0.25702",0,"Incongruent",1,0.25702,"left",0,0.47
"S009","Perceptual",1,35.33825,"1536x726",1.115136,60.12,"chrome","107.0.0","Windows 10","Ebbinghaus","2",13,"Ebbinghaus_perceptual_0000000_0.13982",0,"Incongruent",1,0.13982,"left",0,0.646
"S009","Perceptual",1,35.33825,"1536x726",1.115136,60.12,"chrome","107.0.0","Windows 10","Ebbinghaus","2",14,"Ebbinghaus_perceptual_0000000_-0.1454",0,"Incongruent",-1,0.1454,"right",0,0.675
"S009","Perceptual",1,35.33825,"1536x726",1.115136,60.12,"chrome","107.0.0","Windows 10","Ebbinghaus","2",15,"Ebbinghaus_perceptual_0000000_-0.27223",0,"Incongruent",-1,0.27223,"right",0,0.459
"S009","Perceptual",1,35.33825,"1536x726",1.115136,60.12,"chrome","107.0.0","Windows 10","Ebbinghaus","2",16,"Ebbinghaus_perceptual_0000000_-0.22091",0,"Incongruent",-1,0.22091,"right",0,0.439
"S009","Perceptual",1,35.33825,"1536x726",1.115136,60.12,"chrome","107.0.0","Windows 10","Ebbinghaus","2",17,"Ebbinghaus_perceptual_0000000_0.18754",0,"Incongruent",1,0.18754,"left",0,0.593
"S009","Perceptual",1,35.33825,"1536x726",1.115136,60.12,"chrome","107.0.0","Windows 10","Ebbinghaus","2",18,"Ebbinghaus_perceptual_0000000_0.16280",0,"Incongruent",1,0.1628,"left",0,0.709
"S009","Perceptual",1,35.33825,"1536x726",1.115136,60.12,"chrome","107.0.0","Windows 10","Ebbinghaus","2",19,"Ebbinghaus_perceptual_0000000_-0.13434",0,"Incongruent",-1,0.13434,"right",0,0.408
"S009","Perceptual",1,35.33825,"1536x726",1.115136,60.12,"chrome","107.0.0","Windows 10","Ebbinghaus","2",20,"Ebbinghaus_perceptual_0000000_-0.24225",0,"Incongruent",-1,0.24225,"right",0,0.39
"S009","Perceptual",1,35.33825,"1536x726",1.115136,60.12,"chrome","107.0.0","Windows 10","Ebbinghaus","2",21,"Ebbinghaus_perceptual_0000000_0.09000",0,"Incongruent",1,0.09,"left",0,0.786
"S009","Perceptual",1,35.33825,"1536x726",1.115136,60.12,"chrome","107.0.0","Windows 10","Ebbinghaus","2",22,"Ebbinghaus_perceptual_0000000_-0.20724",0,"Incongruent",-1,0.20724,"right",0,0.482
"S009","Perceptual",1,35.33825,"1536x726",1.115136,60.12,"chrome","107.0.0","Windows 10","Ebbinghaus","2",23,"Ebbinghaus_perceptual_0000000_0.09909",0,"Incongruent",1,0.09909,"left",0,0.528
"S009","Perceptual",1,35.33825,"1536x726",1.115136,60.12,"chrome","107.0.0","Windows 10","Ebbinghaus","2",24,"Ebbinghaus_perceptual_0000000_-0.15689",0,"Incongruent",-1,0.15689,"right",0,0.545
"S009","Perceptual",1,35.33825,"1536x726",1.115136,60.12,"chrome","107.0.0","Windows 10","Ebbinghaus","2",25,"Ebbinghaus_perceptual_0000000_0.22792",0,"Incongruent",1,0.22792,"left",0,0.42
"S009","Perceptual",1,35.33825,"1536x726",1.115136,60.12,"chrome","107.0.0","Windows 10","Ebbinghaus","2",26,"Ebbinghaus_perceptual_0000000_0.11858",0,"Incongruent",1,0.11858,"left",0,0.597
"S009","Perceptual",1,35.33825,"1536x726",1.115136,60.12,"chrome","107.0.0","Windows 10","Ebbinghaus","2",27,"Ebbinghaus_perceptual_0000000_-0.19399",0,"Incongruent",-1,0.19399,"right",0,0.463
"S009","Perceptual",1,35.33825,"1536x726",1.115136,60.12,"chrome","107.0.0","Windows 10","Ebbinghaus","2",28,"Ebbinghaus_perceptual_0000000_0.24225",0,"Incongruent",1,0.24225,"left",0,0.504
"S009","Perceptual",1,35.33825,"1536x726",1.115136,60.12,"chrome","107.0.0","Windows 10","Ebbinghaus","2",29,"Ebbinghaus_perceptual_0000000_-0.11354",0,"Incongruent",-1,0.11354,"right",0,0.698
"S009","Perceptual",1,35.33825,"1536x726",1.115136,60.12,"chrome","107.0.0","Windows 10","Ebbinghaus","2",30,"Ebbinghaus_perceptual_0000000_0.20056",0,"Incongruent",1,0.20056,"left",0,0.515
"S009","Perceptual",1,35.33825,"1536x726",1.115136,60.12,"chrome","107.0.0","Windows 10","Ebbinghaus","2",31,"Ebbinghaus_perceptual_0000000_-0.1038",0,"Incongruent",-1,0.1038,"right",0,0.584
"S009","Perceptual",1,35.33825,"1536x726",1.115136,60.12,"chrome","107.0.0","Windows 10","Ebbinghaus","2",32,"Ebbinghaus_perceptual_0000000_-0.22792",0,"Incongruent",-1,0.22792,"right",0,0.518
"S009","Perceptual",1,35.33825,"1536x726",1.115136,60.12,"chrome","107.0.0","Windows 10","VerticalHorizontal","2",1,"VerticalHorizontal_0000000_0.21739",0,"Incongruent",1,0.21739,"left",0,0.566
"S009","Perceptual",1,35.33825,"1536x726",1.115136,60.12,"chrome","107.0.0","Windows 10","VerticalHorizontal","2",2,"VerticalHorizontal_0000000_-0.20257",0,"Incongruent",-1,0.20257,"right",0,0.422
"S009","Perceptual",1,35.33825,"1536x726",1.115136,60.12,"chrome","107.0.0","Windows 10","VerticalHorizontal","2",3,"VerticalHorizontal_0000000_0.09271",0,"Incongruent",1,0.09271,"left",0,0.55
"S009","Perceptual",1,35.33825,"1536x726",1.115136,60.12,"chrome","107.0.0","Windows 10","VerticalHorizontal","2",4,"VerticalHorizontal_0000000_0.07406",0,"Incongruent",1,0.07406,"left",0,0.888
"S009","Perceptual",1,35.33825,"1536x726",1.115136,60.12,"chrome","107.0.0","Windows 10","VerticalHorizontal","2",5,"VerticalHorizontal_0000000_0.14851",0,"Incongruent",1,0.14851,"left",0,0.677
"S009","Perceptual",1,35.33825,"1536x726",1.115136,60.12,"chrome","107.0.0","Windows 10","VerticalHorizontal","2",6,"VerticalHorizontal_0000000_0.20257",0,"Incongruent",1,0.20257,"left",0,0.571
"S009","Perceptual",1,35.33825,"1536x726",1.115136,60.12,"chrome","107.0.0","Windows 10","VerticalHorizontal","2",7,"VerticalHorizontal_0000000_-0.14234",0,"Incongruent",-1,0.14234,"right",0,0.532
"S009","Perceptual",1,35.33825,"1536x726",1.115136,60.12,"chrome","107.0.0","Windows 10","VerticalHorizontal","2",8,"VerticalHorizontal_0000000_0.05750",0,"Incongruent",1,0.0575,"left",0,0.8
"S009","Perceptual",1,35.33825,"1536x726",1.115136,60.12,"chrome","107.0.0","Windows 10","VerticalHorizontal","2",9,"VerticalHorizontal_0000000_0.10283",0,"Incongruent",1,0.10283,"left",0,0.968
"S009","Perceptual",1,35.33825,"1536x726",1.115136,60.12,"chrome","107.0.0","Windows 10","VerticalHorizontal","2",10,"VerticalHorizontal_0000000_0.16124",0,"Incongruent",1,0.16124,"left",0,0.569
"S009","Perceptual",1,35.33825,"1536x726",1.115136,60.12,"chrome","107.0.0","Windows 10","VerticalHorizontal","2",11,"VerticalHorizontal_0000000_0.11346",0,"Incongruent",1,0.11346,"left",0,0.651
"S009","Perceptual",1,35.33825,"1536x726",1.115136,60.12,"chrome","107.0.0","Windows 10","VerticalHorizontal","2",12,"VerticalHorizontal_0000000_-0.10808",0,"Incongruent",-1,0.10808,"right",0,0.577
"S009","Perceptual",1,35.33825,"1536x726",1.115136,60.12,"chrome","107.0.0","Windows 10","VerticalHorizontal","2",13,"VerticalHorizontal_0000000_-0.1678",0,"Incongruent",-1,0.1678,"right",0,0.509
"S009","Perceptual",1,35.33825,"1536x726",1.115136,60.12,"chrome","107.0.0","Windows 10","VerticalHorizontal","2",14,"VerticalHorizontal_0000000_-0.06972",0,"Incongruent",-1,0.06972,"right",0,0.808
"S009","Perceptual",1,35.33825,"1536x726",1.115136,60.12,"chrome","107.0.0","Windows 10","VerticalHorizontal","2",15,"VerticalHorizontal_0000000_0.17449",0,"Incongruent",1,0.17449,"left",0,0.583
"S009","Perceptual",1,35.33825,"1536x726",1.115136,60.12,"chrome","107.0.0","Windows 10","VerticalHorizontal","2",16,"VerticalHorizontal_0000000_-0.1304",0,"Incongruent",-1,0.1304,"right",0,0.49
"S009","Perceptual",1,35.33825,"1536x726",1.115136,60.12,"chrome","107.0.0","Windows 10","VerticalHorizontal","2",17,"VerticalHorizontal_0000000_-0.17449",0,"Incongruent",-1,0.17449,"right",0,0.449
"S009","Perceptual",1,35.33825,"1536x726",1.115136,60.12,"chrome","107.0.0","Windows 10","VerticalHorizontal","2",18,"VerticalHorizontal_0000000_-0.11898",0,"Incongruent",-1,0.11898,"right",0,0.498
"S009","Perceptual",1,35.33825,"1536x726",1.115136,60.12,"chrome","107.0.0","Windows 10","VerticalHorizontal","2",19,"VerticalHorizontal_0000000_-0.05368",0,"Incongruent",-1,0.05368,"right",0,1.068
"S009","Perceptual",1,35.33825,"1536x726",1.115136,60.12,"chrome","107.0.0","Windows 10","VerticalHorizontal","2",20,"VerticalHorizontal_0000000_0.12462",0,"Incongruent",1,0.12462,"left",0,0.692
"S009","Perceptual",1,35.33825,"1536x726",1.115136,60.12,"chrome","107.0.0","Windows 10","VerticalHorizontal","2",21,"VerticalHorizontal_0000000_0.08312",0,"Incongruent",1,0.08312,"left",0,0.843
"S009","Perceptual",1,35.33825,"1536x726",1.115136,60.12,"chrome","107.0.0","Windows 10","VerticalHorizontal","2",22,"VerticalHorizontal_0000000_-0.08785",0,"Incongruent",-1,0.08785,"right",0,0.474
"S009","Perceptual",1,35.33825,"1536x726",1.115136,60.12,"chrome","107.0.0","Windows 10","VerticalHorizontal","2",23,"VerticalHorizontal_0000000_-0.15481",0,"Incongruent",-1,0.15481,"right",0,0.548
"S009","Perceptual",1,35.33825,"1536x726",1.115136,60.12,"chrome","107.0.0","Windows 10","VerticalHorizontal","2",24,"VerticalHorizontal_0000000_-0.18827",0,"Incongruent",-1,0.18827,"right",0,0.429
"S009","Perceptual",1,35.33825,"1536x726",1.115136,60.12,"chrome","107.0.0","Windows 10","VerticalHorizontal","2",26,"VerticalHorizontal_0000000_-0.21739",0,"Incongruent",-1,0.21739,"right",0,0.449
"S009","Perceptual",1,35.33825,"1536x726",1.115136,60.12,"chrome","107.0.0","Windows 10","VerticalHorizontal","2",27,"VerticalHorizontal_0000000_0.18827",0,"Incongruent",1,0.18827,"left",0,0.559
"S009","Perceptual",1,35.33825,"1536x726",1.115136,60.12,"chrome","107.0.0","Windows 10","VerticalHorizontal","2",28,"VerticalHorizontal_0000000_0.06552",0,"Incongruent",1,0.06552,"left",0,0.528
"S009","Perceptual",1,35.33825,"1536x726",1.115136,60.12,"chrome","107.0.0","Windows 10","VerticalHorizontal","2",29,"VerticalHorizontal_0000000_0.13630",0,"Incongruent",1,0.1363,"left",0,0.656
"S009","Perceptual",1,35.33825,"1536x726",1.115136,60.12,"chrome","107.0.0","Windows 10","VerticalHorizontal","2",30,"VerticalHorizontal_0000000_-0.0977",0,"Incongruent",-1,0.0977,"right",0,0.609
"S009","Perceptual",1,35.33825,"1536x726",1.115136,60.12,"chrome","107.0.0","Windows 10","VerticalHorizontal","2",31,"VerticalHorizontal_0000000_-0.06144",0,"Incongruent",-1,0.06144,"right",0,0.71
"S009","Perceptual",1,35.33825,"1536x726",1.115136,60.12,"chrome","107.0.0","Windows 10","VerticalHorizontal","2",32,"VerticalHorizontal_0000000_-0.07853",0,"Incongruent",-1,0.07853,"right",0,0.536
"S004","Perceptual",2,46.1360666666667,"1440x841",1.21104,60,"chrome","107.0.0","Windows 10","MullerLyer","1",1,"MullerLyer_perceptual_0000000_-0.19122",0,"Incongruent",-1,0.19122,"down",0,0.599
"S004","Perceptual",2,46.1360666666667,"1440x841",1.21104,60,"chrome","107.0.0","Windows 10","MullerLyer","1",2,"MullerLyer_perceptual_0000000_0.32247",0,"Incongruent",1,0.32247,"up",0,1.13
"S004","Perceptual",2,46.1360666666667,"1440x841",1.21104,60,"chrome","107.0.0","Windows 10","MullerLyer","1",3,"MullerLyer_perceptual_0000000_-0.2708",0,"Incongruent",-1,0.2708,"down",0,0.582
"S004","Perceptual",2,46.1360666666667,"1440x841",1.21104,60,"chrome","107.0.0","Windows 10","MullerLyer","1",4,"MullerLyer_perceptual_0000000_0.08007",0,"Incongruent",1,0.08007,"up",0,0.574
"S004","Perceptual",2,46.1360666666667,"1440x841",1.21104,60,"chrome","107.0.0","Windows 10","MullerLyer","1",6,"MullerLyer_perceptual_0000000_0.12545",0,"Incongruent",1,0.12545,"up",0,0.705
"S004","Perceptual",2,46.1360666666667,"1440x841",1.21104,60,"chrome","107.0.0","Windows 10","MullerLyer","1",7,"MullerLyer_perceptual_0000000_-0.21255",0,"Incongruent",-1,0.21255,"down",0,0.572
"S004","Perceptual",2,46.1360666666667,"1440x841",1.21104,60,"chrome","107.0.0","Windows 10","MullerLyer","1",8,"MullerLyer_perceptual_0000000_-0.15194",0,"Incongruent",-1,0.15194,"down",0,0.459
"S004","Perceptual",2,46.1360666666667,"1440x841",1.21104,60,"chrome","107.0.0","Windows 10","MullerLyer","1",9,"MullerLyer_perceptual_0000000_-0.07349",0,"Incongruent",-1,0.07349,"down",0,1.059
"S004","Perceptual",2,46.1360666666667,"1440x841",1.21104,60,"chrome","107.0.0","Windows 10","MullerLyer","1",10,"MullerLyer_perceptual_0000000_0.35000",0,"Incongruent",1,0.35,"up",0,0.575
"S004","Perceptual",2,46.1360666666667,"1440x841",1.21104,60,"chrome","107.0.0","Windows 10","MullerLyer","1",11,"MullerLyer_perceptual_0000000_-0.0500",0,"Incongruent",-1,0.05,"down",0,0.483
"S004","Perceptual",2,46.1360666666667,"1440x841",1.21104,60,"chrome","107.0.0","Windows 10","MullerLyer","1",12,"MullerLyer_perceptual_0000000_-0.11718",0,"Incongruent",-1,0.11718,"down",0,0.788
"S004","Perceptual",2,46.1360666666667,"1440x841",1.21104,60,"chrome","107.0.0","Windows 10","MullerLyer","1",13,"MullerLyer_perceptual_0000000_0.29607",0,"Incongruent",1,0.29607,"up",0,0.539
"S004","Perceptual",2,46.1360666666667,"1440x841",1.21104,60,"chrome","107.0.0","Windows 10","MullerLyer","1",14,"MullerLyer_perceptual_0000000_-0.10149",0,"Incongruent",-1,0.10149,"down",0,0.556
"S004","Perceptual",2,46.1360666666667,"1440x841",1.21104,60,"chrome","107.0.0","Windows 10","MullerLyer","1",15,"MullerLyer_perceptual_0000000_0.10919",0,"Incongruent",1,0.10919,"up",0,0.504
"S004","Perceptual",2,46.1360666666667,"1440x841",1.21104,60,"chrome","107.0.0","Windows 10","MullerLyer","1",16,"MullerLyer_perceptual_0000000_-0.08693",0,"Incongruent",-1,0.08693,"down",0,0.801
"S004","Perceptual",2,46.1360666666667,"1440x841",1.21104,60,"chrome","107.0.0","Windows 10","MullerLyer","1",17,"MullerLyer_perceptual_0000000_-0.1340",0,"Incongruent",-1,0.134,"down",0,0.436
"S004","Perceptual",2,46.1360666666667,"1440x841",1.21104,60,"chrome","107.0.0","Windows 10","MullerLyer","1",18,"MullerLyer_perceptual_0000000_-0.3500",0,"Incongruent",-1,0.35,"down",0,0.543
"S004","Perceptual",2,46.1360666666667,"1440x841",1.21104,60,"chrome","107.0.0","Windows 10","MullerLyer","1",19,"MullerLyer_perceptual_0000000_0.22363",0,"Incongruent",1,0.22363,"up",0,0.556
"S004","Perceptual",2,46.1360666666667,"1440x841",1.21104,60,"chrome","107.0.0","Windows 10","MullerLyer","1",20,"MullerLyer_perceptual_0000000_0.06719",0,"Incongruent",1,0.06719,"up",0,1.179
"S004","Perceptual",2,46.1360666666667,"1440x841",1.21104,60,"chrome","107.0.0","Windows 10","MullerLyer","1",21,"MullerLyer_perceptual_0000000_0.24665",0,"Incongruent",1,0.24665,"up",0,0.485
"S004","Perceptual",2,46.1360666666667,"1440x841",1.21104,60,"chrome","107.0.0","Windows 10","MullerLyer","1",22,"MullerLyer_perceptual_0000000_-0.06118",0,"Incongruent",-1,0.06118,"down",0,1.238
"S004","Perceptual",2,46.1360666666667,"1440x841",1.21104,60,"chrome","107.0.0","Windows 10","MullerLyer","1",23,"MullerLyer_perceptual_0000000_0.14283",0,"Incongruent",1,0.14283,"up",0,0.753
"S004","Perceptual",2,46.1360666666667,"1440x841",1.21104,60,"chrome","107.0.0","Windows 10","MullerLyer","1",24,"MullerLyer_perceptual_0000000_-0.2350",0,"Incongruent",-1,0.235,"down",0,0.561
"S004","Perceptual",2,46.1360666666667,"1440x841",1.21104,60,"chrome","107.0.0","Windows 10","MullerLyer","1",25,"MullerLyer_perceptual_0000000_0.20174",0,"Incongruent",1,0.20174,"up",0,0.536
"S004","Perceptual",2,46.1360666666667,"1440x841",1.21104,60,"chrome","107.0.0","Windows 10","MullerLyer","1",26,"MullerLyer_perceptual_0000000_0.27080",0,"Incongruent",1,0.2708,"up",0,0.469
"S004","Perceptual",2,46.1360666666667,"1440x841",1.21104,60,"chrome","107.0.0","Windows 10","MullerLyer","1",27,"MullerLyer_perceptual_0000000_0.09407",0,"Incongruent",1,0.09407,"up",0,0.93
"S004","Perceptual",2,46.1360666666667,"1440x841",1.21104,60,"chrome","107.0.0","Windows 10","MullerLyer","1",28,"MullerLyer_perceptual_0000000_-0.32247",0,"Incongruent",-1,0.32247,"down",0,0.517
"S004","Perceptual",2,46.1360666666667,"1440x841",1.21104,60,"chrome","107.0.0","Windows 10","MullerLyer","1",29,"MullerLyer_perceptual_0000000_0.18098",0,"Incongruent",1,0.18098,"up",0,1.317
"S004","Perceptual",2,46.1360666666667,"1440x841",1.21104,60,"chrome","107.0.0","Windows 10","MullerLyer","1",30,"MullerLyer_perceptual_0000000_-0.29607",0,"Incongruent",-1,0.29607,"down",0,0.496
"S004","Perceptual",2,46.1360666666667,"1440x841",1.21104,60,"chrome","107.0.0","Windows 10","MullerLyer","1",31,"MullerLyer_perceptual_0000000_-0.17102",0,"Incongruent",-1,0.17102,"down",0,0.468
"S004","Perceptual",2,46.1360666666667,"1440x841",1.21104,60,"chrome","107.0.0","Windows 10","MullerLyer","1",32,"MullerLyer_perceptual_0000000_0.16134",0,"Incongruent",1,0.16134,"up",0,0.482
"S004","Perceptual",2,46.1360666666667,"1440x841",1.21104,60,"chrome","107.0.0","Windows 10","Ebbinghaus","1",1,"Ebbinghaus_perceptual_0000000_0.14540",0,"Incongruent",1,0.1454,"left",0,0.879
"S004","Perceptual",2,46.1360666666667,"1440x841",1.21104,60,"chrome","107.0.0","Windows 10","Ebbinghaus","1",2,"Ebbinghaus_perceptual_0000000_-0.17495",0,"Incongruent",-1,0.17495,"right",0,0.736
"S004","Perceptual",2,46.1360666666667,"1440x841",1.21104,60,"chrome","107.0.0","Windows 10","Ebbinghaus","1",3,"Ebbinghaus_perceptual_0000000_-0.11858",0,"Incongruent",-1,0.11858,"right",0,0.852
"S004","Perceptual",2,46.1360666666667,"1440x841",1.21104,60,"chrome","107.0.0","Windows 10","Ebbinghaus","1",4,"Ebbinghaus_perceptual_0000000_-0.10861",0,"Incongruent",-1,0.10861,"right",0,1.149
"S004","Perceptual",2,46.1360666666667,"1440x841",1.21104,60,"chrome","107.0.0","Windows 10","Ebbinghaus","1",5,"Ebbinghaus_perceptual_0000000_0.09449",0,"Incongruent",1,0.09449,"left",0,0.83
"S004","Perceptual",2,46.1360666666667,"1440x841",1.21104,60,"chrome","107.0.0","Windows 10","Ebbinghaus","1",6,"Ebbinghaus_perceptual_0000000_-0.26457",0,"Incongruent",-1,0.26457,"right",0,0.635
"S004","Perceptual",2,46.1360666666667,"1440x841",1.21104,60,"chrome","107.0.0","Windows 10","Ebbinghaus","1",7,"Ebbinghaus_perceptual_0000000_-0.1628",0,"Incongruent",-1,0.1628,"right",0,1.042
"S004","Perceptual",2,46.1360666666667,"1440x841",1.21104,60,"chrome","107.0.0","Windows 10","Ebbinghaus","1",8,"Ebbinghaus_perceptual_0000000_-0.13982",0,"Incongruent",-1,0.13982,"right",0,0.837
"S004","Perceptual",2,46.1360666666667,"1440x841",1.21104,60,"chrome","107.0.0","Windows 10","Ebbinghaus","1",9,"Ebbinghaus_perceptual_0000000_-0.24958",0,"Incongruent",-1,0.24958,"right",0,0.677
"S004","Perceptual",2,46.1360666666667,"1440x841",1.21104,60,"chrome","107.0.0","Windows 10","Ebbinghaus","1",10,"Ebbinghaus_perceptual_0000000_0.16882",0,"Incongruent",1,0.16882,"left",0,0.627
"S004","Perceptual",2,46.1360666666667,"1440x841",1.21104,60,"chrome","107.0.0","Windows 10","Ebbinghaus","1",11,"Ebbinghaus_perceptual_0000000_0.23503",0,"Incongruent",1,0.23503,"left",0,1.038
"S004","Perceptual",2,46.1360666666667,"1440x841",1.21104,60,"chrome","107.0.0","Windows 10","Ebbinghaus","1",12,"Ebbinghaus_perceptual_0000000_0.11354",0,"Incongruent",1,0.11354,"left",0,0.727
"S004","Perceptual",2,46.1360666666667,"1440x841",1.21104,60,"chrome","107.0.0","Windows 10","Ebbinghaus","1",13,"Ebbinghaus_perceptual_0000000_0.22091",0,"Incongruent",1,0.22091,"left",0,0.65
"S004","Perceptual",2,46.1360666666667,"1440x841",1.21104,60,"chrome","107.0.0","Windows 10","Ebbinghaus","1",14,"Ebbinghaus_perceptual_0000000_-0.2800",0,"Incongruent",-1,0.28,"right",0,0.54
"S004","Perceptual",2,46.1360666666667,"1440x841",1.21104,60,"chrome","107.0.0","Windows 10","Ebbinghaus","1",15,"Ebbinghaus_perceptual_0000000_-0.09909",0,"Incongruent",-1,0.09909,"right",0,0.702
"S004","Perceptual",2,46.1360666666667,"1440x841",1.21104,60,"chrome","107.0.0","Windows 10","Ebbinghaus","1",16,"Ebbinghaus_perceptual_0000000_-0.18754",0,"Incongruent",-1,0.18754,"right",0,0.722
"S004","Perceptual",2,46.1360666666667,"1440x841",1.21104,60,"chrome","107.0.0","Windows 10","Ebbinghaus","1",17,"Ebbinghaus_perceptual_0000000_-0.21402",0,"Incongruent",-1,0.21402,"right",0,0.523
"S004","Perceptual",2,46.1360666666667,"1440x841",1.21104,60,"chrome","107.0.0","Windows 10","Ebbinghaus","1",18,"Ebbinghaus_perceptual_0000000_-0.23503",0,"Incongruent",-1,0.23503,"right",0,1.061
"S004","Perceptual",2,46.1360666666667,"1440x841",1.21104,60,"chrome","107.0.0","Windows 10","Ebbinghaus","1",19,"Ebbinghaus_perceptual_0000000_0.15689",0,"Incongruent",1,0.15689,"left",0,0.513
"S004","Perceptual",2,46.1360666666667,"1440x841",1.21104,60,"chrome","107.0.0","Windows 10","Ebbinghaus","1",20,"Ebbinghaus_perceptual_0000000_0.18119",0,"Incongruent",1,0.18119,"left",0,0.533
"S004","Perceptual",2,46.1360666666667,"1440x841",1.21104,60,"chrome","107.0.0","Windows 10","Ebbinghaus","1",21,"Ebbinghaus_perceptual_0000000_-0.12898",0,"Incongruent",-1,0.12898,"right",0,0.766
"S004","Perceptual",2,46.1360666666667,"1440x841",1.21104,60,"chrome","107.0.0","Windows 10","Ebbinghaus","1",22,"Ebbinghaus_perceptual_0000000_0.13434",0,"Incongruent",1,0.13434,"left",0,0.641
"S004","Perceptual",2,46.1360666666667,"1440x841",1.21104,60,"chrome","107.0.0","Windows 10","Ebbinghaus","1",23,"Ebbinghaus_perceptual_0000000_0.10380",0,"Incongruent",1,0.1038,"left",0,0.753
"S004","Perceptual",2,46.1360666666667,"1440x841",1.21104,60,"chrome","107.0.0","Windows 10","Ebbinghaus","1",24,"Ebbinghaus_perceptual_0000000_-0.15109",0,"Incongruent",-1,0.15109,"right",0,0.645
"S004","Perceptual",2,46.1360666666667,"1440x841",1.21104,60,"chrome","107.0.0","Windows 10","Ebbinghaus","1",25,"Ebbinghaus_perceptual_0000000_0.20724",0,"Incongruent",1,0.20724,"left",0,1.553
"S004","Perceptual",2,46.1360666666667,"1440x841",1.21104,60,"chrome","107.0.0","Windows 10","Ebbinghaus","1",26,"Ebbinghaus_perceptual_0000000_0.12372",0,"Incongruent",1,0.12372,"left",0,1.166
"S004","Perceptual",2,46.1360666666667,"1440x841",1.21104,60,"chrome","107.0.0","Windows 10","Ebbinghaus","1",27,"Ebbinghaus_perceptual_0000000_0.24958",0,"Incongruent",1,0.24958,"left",0,0.777
"S004","Perceptual",2,46.1360666666667,"1440x841",1.21104,60,"chrome","107.0.0","Windows 10","Ebbinghaus","1",28,"Ebbinghaus_perceptual_0000000_-0.20056",0,"Incongruent",-1,0.20056,"right",0,0.535
"S004","Perceptual",2,46.1360666666667,"1440x841",1.21104,60,"chrome","107.0.0","Windows 10","Ebbinghaus","1",29,"Ebbinghaus_perceptual_0000000_0.19399",0,"Incongruent",1,0.19399,"left",0,0.61
"S004","Perceptual",2,46.1360666666667,"1440x841",1.21104,60,"chrome","107.0.0","Windows 10","Ebbinghaus","1",31,"Ebbinghaus_perceptual_0000000_0.26457",0,"Incongruent",1,0.26457,"left",0,0.501
"S004","Perceptual",2,46.1360666666667,"1440x841",1.21104,60,"chrome","107.0.0","Windows 10","Ebbinghaus","1",32,"Ebbinghaus_perceptual_0000000_-0.0900",0,"Incongruent",-1,0.09,"left",1,0.623
"S004","Perceptual",2,46.1360666666667,"1440x841",1.21104,60,"chrome","107.0.0","Windows 10","VerticalHorizontal","1",1,"VerticalHorizontal_0000000_0.13040",0,"Incongruent",1,0.1304,"left",0,0.491
"S004","Perceptual",2,46.1360666666667,"1440x841",1.21104,60,"chrome","107.0.0","Windows 10","VerticalHorizontal","1",2,"VerticalHorizontal_0000000_0.10808",0,"Incongruent",1,0.10808,"left",0,0.518
"S004","Perceptual",2,46.1360666666667,"1440x841",1.21104,60,"chrome","107.0.0","Windows 10","VerticalHorizontal","1",4,"VerticalHorizontal_0000000_0.14234",0,"Incongruent",1,0.14234,"left",0,0.944
"S004","Perceptual",2,46.1360666666667,"1440x841",1.21104,60,"chrome","107.0.0","Windows 10","VerticalHorizontal","1",5,"VerticalHorizontal_0000000_-0.2250",0,"Incongruent",-1,0.225,"right",0,0.638
"S004","Perceptual",2,46.1360666666667,"1440x841",1.21104,60,"chrome","107.0.0","Windows 10","VerticalHorizontal","1",6,"VerticalHorizontal_0000000_-0.1363",0,"Incongruent",-1,0.1363,"right",0,0.738
"S004","Perceptual",2,46.1360666666667,"1440x841",1.21104,60,"chrome","107.0.0","Windows 10","VerticalHorizontal","1",7,"VerticalHorizontal_0000000_0.20992",0,"Incongruent",1,0.20992,"left",0,0.567
"S004","Perceptual",2,46.1360666666667,"1440x841",1.21104,60,"chrome","107.0.0","Windows 10","VerticalHorizontal","1",8,"VerticalHorizontal_0000000_-0.08312",0,"Incongruent",-1,0.08312,"right",0,0.504
"S004","Perceptual",2,46.1360666666667,"1440x841",1.21104,60,"chrome","107.0.0","Windows 10","VerticalHorizontal","1",9,"VerticalHorizontal_0000000_-0.0575",0,"Incongruent",-1,0.0575,"right",0,0.92
"S004","Perceptual",2,46.1360666666667,"1440x841",1.21104,60,"chrome","107.0.0","Windows 10","VerticalHorizontal","1",10,"VerticalHorizontal_0000000_-0.11346",0,"Incongruent",-1,0.11346,"right",0,0.525
"S004","Perceptual",2,46.1360666666667,"1440x841",1.21104,60,"chrome","107.0.0","Windows 10","VerticalHorizontal","1",11,"VerticalHorizontal_0000000_0.15481",0,"Incongruent",1,0.15481,"left",0,0.53
"S004","Perceptual",2,46.1360666666667,"1440x841",1.21104,60,"chrome","107.0.0","Windows 10","VerticalHorizontal","1",12,"VerticalHorizontal_0000000_0.11898",0,"Incongruent",1,0.11898,"left",0,0.728
"S004","Perceptual",2,46.1360666666667,"1440x841",1.21104,60,"chrome","107.0.0","Windows 10","VerticalHorizontal","1",13,"VerticalHorizontal_0000000_0.07853",0,"Incongruent",1,0.07853,"left",0,0.894
"S004","Perceptual",2,46.1360666666667,"1440x841",1.21104,60,"chrome","107.0.0","Windows 10","VerticalHorizontal","1",14,"VerticalHorizontal_0000000_0.06972",0,"Incongruent",1,0.06972,"left",0,0.55
"S004","Perceptual",2,46.1360666666667,"1440x841",1.21104,60,"chrome","107.0.0","Windows 10","VerticalHorizontal","1",15,"VerticalHorizontal_0000000_-0.20992",0,"Incongruent",-1,0.20992,"right",0,0.498
"S004","Perceptual",2,46.1360666666667,"1440x841",1.21104,60,"chrome","107.0.0","Windows 10","VerticalHorizontal","1",16,"VerticalHorizontal_0000000_-0.10283",0,"Incongruent",-1,0.10283,"right",0,0.797
"S004","Perceptual",2,46.1360666666667,"1440x841",1.21104,60,"chrome","107.0.0","Windows 10","VerticalHorizontal","1",17,"VerticalHorizontal_0000000_-0.18132",0,"Incongruent",-1,0.18132,"right",0,0.48
"S004","Perceptual",2,46.1360666666667,"1440x841",1.21104,60,"chrome","107.0.0","Windows 10","VerticalHorizontal","1",18,"VerticalHorizontal_0000000_0.22500",0,"Incongruent",1,0.225,"left",0,0.586
"S004","Perceptual",2,46.1360666666667,"1440x841",1.21104,60,"chrome","107.0.0","Windows 10","VerticalHorizontal","1",19,"VerticalHorizontal_0000000_0.08785",0,"Incongruent",1,0.08785,"left",0,1.23
"S004","Perceptual",2,46.1360666666667,"1440x841",1.21104,60,"chrome","107.0.0","Windows 10","VerticalHorizontal","1",20,"VerticalHorizontal_0000000_0.19535",0,"Incongruent",1,0.19535,"left",0,0.711
"S004","Perceptual",2,46.1360666666667,"1440x841",1.21104,60,"chrome","107.0.0","Windows 10","VerticalHorizontal","1",21,"VerticalHorizontal_0000000_0.05368",0,"Incongruent",1,0.05368,"left",0,1.018
"S004","Perceptual",2,46.1360666666667,"1440x841",1.21104,60,"chrome","107.0.0","Windows 10","VerticalHorizontal","1",22,"VerticalHorizontal_0000000_-0.12462",0,"Incongruent",-1,0.12462,"right",0,0.702
"S004","Perceptual",2,46.1360666666667,"1440x841",1.21104,60,"chrome","107.0.0","Windows 10","VerticalHorizontal","1",23,"VerticalHorizontal_0000000_0.09770",0,"Incongruent",1,0.0977,"left",0,0.619
"S004","Perceptual",2,46.1360666666667,"1440x841",1.21104,60,"chrome","107.0.0","Windows 10","VerticalHorizontal","1",24,"VerticalHorizontal_0000000_-0.06552",0,"Incongruent",-1,0.06552,"right",0,0.629
"S004","Perceptual",2,46.1360666666667,"1440x841",1.21104,60,"chrome","107.0.0","Windows 10","VerticalHorizontal","1",25,"VerticalHorizontal_0000000_-0.09271",0,"Incongruent",-1,0.09271,"right",0,0.674
"S004","Perceptual",2,46.1360666666667,"1440x841",1.21104,60,"chrome","107.0.0","Windows 10","VerticalHorizontal","1",26,"VerticalHorizontal_0000000_0.16780",0,"Incongruent",1,0.1678,"left",0,0.664
"S004","Perceptual",2,46.1360666666667,"1440x841",1.21104,60,"chrome","107.0.0","Windows 10","VerticalHorizontal","1",27,"VerticalHorizontal_0000000_-0.19535",0,"Incongruent",-1,0.19535,"right",0,1.031
"S004","Perceptual",2,46.1360666666667,"1440x841",1.21104,60,"chrome","107.0.0","Windows 10","VerticalHorizontal","1",28,"VerticalHorizontal_0000000_0.18132",0,"Incongruent",1,0.18132,"left",0,0.504
"S004","Perceptual",2,46.1360666666667,"1440x841",1.21104,60,"chrome","107.0.0","Windows 10","VerticalHorizontal","1",29,"VerticalHorizontal_0000000_-0.0500",0,"Incongruent",-1,0.05,"right",0,0.986
"S004","Perceptual",2,46.1360666666667,"1440x841",1.21104,60,"chrome","107.0.0","Windows 10","VerticalHorizontal","1",30,"VerticalHorizontal_0000000_-0.14851",0,"Incongruent",-1,0.14851,"right",0,0.478
"S004","Perceptual",2,46.1360666666667,"1440x841",1.21104,60,"chrome","107.0.0","Windows 10","VerticalHorizontal","1",31,"VerticalHorizontal_0000000_-0.16124",0,"Incongruent",-1,0.16124,"right",0,0.434
"S004","Perceptual",2,46.1360666666667,"1440x841",1.21104,60,"chrome","107.0.0","Windows 10","VerticalHorizontal","1",32,"VerticalHorizontal_0000000_-0.07406",0,"Incongruent",-1,0.07406,"right",0,0.444
"S004","Perceptual",2,46.1360666666667,"1440x841",1.21104,60,"chrome","107.0.0","Windows 10","MullerLyer","2",1,"MullerLyer_perceptual_0000000_-0.25858",0,"Incongruent",-1,0.25858,"down",0,0.503
"S004","Perceptual",2,46.1360666666667,"1440x841",1.21104,60,"chrome","107.0.0","Windows 10","MullerLyer","2",2,"MullerLyer_perceptual_0000000_-0.06719",0,"Incongruent",-1,0.06719,"down",0,0.881
"S004","Perceptual",2,46.1360666666667,"1440x841",1.21104,60,"chrome","107.0.0","Windows 10","MullerLyer","2",3,"MullerLyer_perceptual_0000000_0.07349",0,"Incongruent",1,0.07349,"up",0,1.056
"S004","Perceptual",2,46.1360666666667,"1440x841",1.21104,60,"chrome","107.0.0","Windows 10","MullerLyer","2",4,"MullerLyer_perceptual_0000000_0.23500",0,"Incongruent",1,0.235,"up",0,0.488
"S004","Perceptual",2,46.1360666666667,"1440x841",1.21104,60,"chrome","107.0.0","Windows 10","MullerLyer","2",5,"MullerLyer_perceptual_0000000_-0.28329",0,"Incongruent",-1,0.28329,"down",0,0.871
"S004","Perceptual",2,46.1360666666667,"1440x841",1.21104,60,"chrome","107.0.0","Windows 10","MullerLyer","2",6,"MullerLyer_perceptual_0000000_0.06118",0,"Incongruent",1,0.06118,"up",0,1.667
"S004","Perceptual",2,46.1360666666667,"1440x841",1.21104,60,"chrome","107.0.0","Windows 10","MullerLyer","2",7,"MullerLyer_perceptual_0000000_-0.18098",0,"Incongruent",-1,0.18098,"down",0,0.549
"S004","Perceptual",2,46.1360666666667,"1440x841",1.21104,60,"chrome","107.0.0","Windows 10","MullerLyer","2",8,"MullerLyer_perceptual_0000000_-0.05545",0,"Incongruent",-1,0.05545,"down",0,1.041
"S004","Perceptual",2,46.1360666666667,"1440x841",1.21104,60,"chrome","107.0.0","Windows 10","MullerLyer","2",9,"MullerLyer_perceptual_0000000_0.33609",0,"Incongruent",1,0.33609,"up",0,0.546
"S004","Perceptual",2,46.1360666666667,"1440x841",1.21104,60,"chrome","107.0.0","Windows 10","MullerLyer","2",10,"MullerLyer_perceptual_0000000_-0.20174",0,"Incongruent",-1,0.20174,"down",0,0.615
"S004","Perceptual",2,46.1360666666667,"1440x841",1.21104,60,"chrome","107.0.0","Windows 10","MullerLyer","2",11,"MullerLyer_perceptual_0000000_-0.09407",0,"Incongruent",-1,0.09407,"down",0,1.625
"S004","Perceptual",2,46.1360666666667,"1440x841",1.21104,60,"chrome","107.0.0","Windows 10","MullerLyer","2",12,"MullerLyer_perceptual_0000000_-0.24665",0,"Incongruent",-1,0.24665,"down",0,0.481
"S004","Perceptual",2,46.1360666666667,"1440x841",1.21104,60,"chrome","107.0.0","Windows 10","MullerLyer","2",13,"MullerLyer_perceptual_0000000_0.25858",0,"Incongruent",1,0.25858,"up",0,0.723
"S004","Perceptual",2,46.1360666666667,"1440x841",1.21104,60,"chrome","107.0.0","Windows 10","MullerLyer","2",14,"MullerLyer_perceptual_0000000_-0.08007",0,"Incongruent",-1,0.08007,"down",0,1.525
"S004","Perceptual",2,46.1360666666667,"1440x841",1.21104,60,"chrome","107.0.0","Windows 10","MullerLyer","2",15,"MullerLyer_perceptual_0000000_0.30913",0,"Incongruent",1,0.30913,"up",0,0.601
"S004","Perceptual",2,46.1360666666667,"1440x841",1.21104,60,"chrome","107.0.0","Windows 10","MullerLyer","2",16,"MullerLyer_perceptual_0000000_0.19122",0,"Incongruent",1,0.19122,"up",0,0.686
"S004","Perceptual",2,46.1360666666667,"1440x841",1.21104,60,"chrome","107.0.0","Windows 10","MullerLyer","2",17,"MullerLyer_perceptual_0000000_0.17102",0,"Incongruent",1,0.17102,"up",0,0.835
"S004","Perceptual",2,46.1360666666667,"1440x841",1.21104,60,"chrome","107.0.0","Windows 10","MullerLyer","2",18,"MullerLyer_perceptual_0000000_-0.16134",0,"Incongruent",-1,0.16134,"down",0,0.737
"S004","Perceptual",2,46.1360666666667,"1440x841",1.21104,60,"chrome","107.0.0","Windows 10","MullerLyer","2",19,"MullerLyer_perceptual_0000000_-0.10919",0,"Incongruent",-1,0.10919,"down",0,0.516
"S004","Perceptual",2,46.1360666666667,"1440x841",1.21104,60,"chrome","107.0.0","Windows 10","MullerLyer","2",20,"MullerLyer_perceptual_0000000_0.08693",0,"Incongruent",1,0.08693,"up",0,0.835
"S004","Perceptual",2,46.1360666666667,"1440x841",1.21104,60,"chrome","107.0.0","Windows 10","MullerLyer","2",21,"MullerLyer_perceptual_0000000_0.21255",0,"Incongruent",1,0.21255,"up",0,0.475
"S004","Perceptual",2,46.1360666666667,"1440x841",1.21104,60,"chrome","107.0.0","Windows 10","MullerLyer","2",22,"MullerLyer_perceptual_0000000_-0.30913",0,"Incongruent",-1,0.30913,"down",0,0.723
"S004","Perceptual",2,46.1360666666667,"1440x841",1.21104,60,"chrome","107.0.0","Windows 10","MullerLyer","2",23,"MullerLyer_perceptual_0000000_0.05000",0,"Incongruent",1,0.05,"up",0,1.035
"S004","Perceptual",2,46.1360666666667,"1440x841",1.21104,60,"chrome","107.0.0","Windows 10","MullerLyer","2",24,"MullerLyer_perceptual_0000000_0.11718",0,"Incongruent",1,0.11718,"up",0,0.52
"S004","Perceptual",2,46.1360666666667,"1440x841",1.21104,60,"chrome","107.0.0","Windows 10","MullerLyer","2",25,"MullerLyer_perceptual_0000000_-0.14283",0,"Incongruent",-1,0.14283,"down",0,0.896
"S004","Perceptual",2,46.1360666666667,"1440x841",1.21104,60,"chrome","107.0.0","Windows 10","MullerLyer","2",26,"MullerLyer_perceptual_0000000_0.13400",0,"Incongruent",1,0.134,"up",0,0.686
"S004","Perceptual",2,46.1360666666667,"1440x841",1.21104,60,"chrome","107.0.0","Windows 10","MullerLyer","2",27,"MullerLyer_perceptual_0000000_0.15194",0,"Incongruent",1,0.15194,"up",0,0.916
"S004","Perceptual",2,46.1360666666667,"1440x841",1.21104,60,"chrome","107.0.0","Windows 10","MullerLyer","2",28,"MullerLyer_perceptual_0000000_-0.22363",0,"Incongruent",-1,0.22363,"down",0,1.015
"S004","Perceptual",2,46.1360666666667,"1440x841",1.21104,60,"chrome","107.0.0","Windows 10","MullerLyer","2",29,"MullerLyer_perceptual_0000000_-0.12545",0,"Incongruent",-1,0.12545,"down",0,0.922
"S004","Perceptual",2,46.1360666666667,"1440x841",1.21104,60,"chrome","107.0.0","Windows 10","MullerLyer","2",30,"MullerLyer_perceptual_0000000_0.10149",0,"Incongruent",1,0.10149,"up",0,0.849
"S004","Perceptual",2,46.1360666666667,"1440x841",1.21104,60,"chrome","107.0.0","Windows 10","MullerLyer","2",31,"MullerLyer_perceptual_0000000_-0.33609",0,"Incongruent",-1,0.33609,"down",0,0.708
"S004","Perceptual",2,46.1360666666667,"1440x841",1.21104,60,"chrome","107.0.0","Windows 10","MullerLyer","2",32,"MullerLyer_perceptual_0000000_0.28329",0,"Incongruent",1,0.28329,"up",0,0.761
"S004","Perceptual",2,46.1360666666667,"1440x841",1.21104,60,"chrome","107.0.0","Windows 10","Ebbinghaus","2",1,"Ebbinghaus_perceptual_0000000_0.09909",0,"Incongruent",1,0.09909,"left",0,0.872
"S004","Perceptual",2,46.1360666666667,"1440x841",1.21104,60,"chrome","107.0.0","Windows 10","Ebbinghaus","2",2,"Ebbinghaus_perceptual_0000000_-0.1038",0,"Incongruent",-1,0.1038,"right",0,0.665
"S004","Perceptual",2,46.1360666666667,"1440x841",1.21104,60,"chrome","107.0.0","Windows 10","Ebbinghaus","2",3,"Ebbinghaus_perceptual_0000000_0.24225",0,"Incongruent",1,0.24225,"left",0,0.48
"S004","Perceptual",2,46.1360666666667,"1440x841",1.21104,60,"chrome","107.0.0","Windows 10","Ebbinghaus","2",4,"Ebbinghaus_perceptual_0000000_-0.18119",0,"Incongruent",-1,0.18119,"right",0,0.935
"S004","Perceptual",2,46.1360666666667,"1440x841",1.21104,60,"chrome","107.0.0","Windows 10","Ebbinghaus","2",5,"Ebbinghaus_perceptual_0000000_0.21402",0,"Incongruent",1,0.21402,"left",0,0.504
"S004","Perceptual",2,46.1360666666667,"1440x841",1.21104,60,"chrome","107.0.0","Windows 10","Ebbinghaus","2",6,"Ebbinghaus_perceptual_0000000_0.22792",0,"Incongruent",1,0.22792,"left",0,0.42
"S004","Perceptual",2,46.1360666666667,"1440x841",1.21104,60,"chrome","107.0.0","Windows 10","Ebbinghaus","2",7,"Ebbinghaus_perceptual_0000000_0.17495",0,"Incongruent",1,0.17495,"left",0,0.41
"S004","Perceptual",2,46.1360666666667,"1440x841",1.21104,60,"chrome","107.0.0","Windows 10","Ebbinghaus","2",8,"Ebbinghaus_perceptual_0000000_-0.19399",0,"Incongruent",-1,0.19399,"right",0,0.606
"S004","Perceptual",2,46.1360666666667,"1440x841",1.21104,60,"chrome","107.0.0","Windows 10","Ebbinghaus","2",9,"Ebbinghaus_perceptual_0000000_-0.15689",0,"Incongruent",-1,0.15689,"right",0,0.716
"S004","Perceptual",2,46.1360666666667,"1440x841",1.21104,60,"chrome","107.0.0","Windows 10","Ebbinghaus","2",10,"Ebbinghaus_perceptual_0000000_-0.16882",0,"Incongruent",-1,0.16882,"right",0,0.665
"S004","Perceptual",2,46.1360666666667,"1440x841",1.21104,60,"chrome","107.0.0","Windows 10","Ebbinghaus","2",11,"Ebbinghaus_perceptual_0000000_-0.12372",0,"Incongruent",-1,0.12372,"right",0,0.786
"S004","Perceptual",2,46.1360666666667,"1440x841",1.21104,60,"chrome","107.0.0","Windows 10","Ebbinghaus","2",12,"Ebbinghaus_perceptual_0000000_0.09000",0,"Incongruent",1,0.09,"left",0,1.311
"S004","Perceptual",2,46.1360666666667,"1440x841",1.21104,60,"chrome","107.0.0","Windows 10","Ebbinghaus","2",13,"Ebbinghaus_perceptual_0000000_-0.25702",0,"Incongruent",-1,0.25702,"right",0,0.49
"S004","Perceptual",2,46.1360666666667,"1440x841",1.21104,60,"chrome","107.0.0","Windows 10","Ebbinghaus","2",14,"Ebbinghaus_perceptual_0000000_0.27223",0,"Incongruent",1,0.27223,"left",0,0.475
"S004","Perceptual",2,46.1360666666667,"1440x841",1.21104,60,"chrome","107.0.0","Windows 10","Ebbinghaus","2",15,"Ebbinghaus_perceptual_0000000_0.25702",0,"Incongruent",1,0.25702,"left",0,0.469
"S004","Perceptual",2,46.1360666666667,"1440x841",1.21104,60,"chrome","107.0.0","Windows 10","Ebbinghaus","2",16,"Ebbinghaus_perceptual_0000000_-0.11354",0,"Incongruent",-1,0.11354,"right",0,0.729
