"Participant","Task","Task_Order","Duration","Screen_Resolution","Screen_Size","Screen_Refresh","Browser","Browser_Version","Device_OS","Illusion_Type","Block","Trial","Stimulus","ISI","Illusion_Strength","Illusion_Effect","Illusion_Side","Illusion_Difference","Answer","Error","RT"
"S053","Illusion_Session2",NA,17.3770333333333,"1536x714",1.096704,60.01,"chrome","108.0.0","Windows 10","Ebbinghaus",1,19,"Ebbinghaus_0.10000_0.28000",736,0.1,"Incongruent","1",0.28,"left",0,0.398
"S053","Illusion_Session2",NA,17.3770333333333,"1536x714",1.096704,60.01,"chrome","108.0.0","Windows 10","Ebbinghaus",1,20,"Ebbinghaus_0.61429_-0.11071",921,0.61429,"Incongruent","-1",0.11071,"right",0,0.355
"S053","Illusion_Session2",NA,17.3770333333333,"1536x714",1.096704,60.01,"chrome","108.0.0","Windows 10","Ebbinghaus",1,21,"Ebbinghaus_-0.35714_0.15857",577,-0.35714,"Congruent","1",0.15857,"right",1,0.448
"S053","Illusion_Session2",NA,17.3770333333333,"1536x714",1.096704,60.01,"chrome","108.0.0","Windows 10","Ebbinghaus",1,22,"Ebbinghaus_-0.87143_-0.11071",547,-0.87143,"Congruent","-1",0.11071,"right",0,0.443
"S053","Illusion_Session2",NA,17.3770333333333,"1536x714",1.096704,60.01,"chrome","108.0.0","Windows 10","Ebbinghaus",1,23,"Ebbinghaus_-0.1000_-0.2150",747,-0.1,"Congruent","-1",0.215,"right",0,0.437
"S053","Illusion_Session2",NA,17.3770333333333,"1536x714",1.096704,60.01,"chrome","108.0.0","Windows 10","Ebbinghaus",1,24,"Ebbinghaus_0.35714_-0.2150",996,0.35714,"Incongruent","-1",0.215,"right",0,0.435
"S053","Illusion_Session2",NA,17.3770333333333,"1536x714",1.096704,60.01,"chrome","108.0.0","Windows 10","Ebbinghaus",1,25,"Ebbinghaus_0.61429_-0.2150",596,0.61429,"Incongruent","-1",0.215,"right",0,0.699
"S053","Illusion_Session2",NA,17.3770333333333,"1536x714",1.096704,60.01,"chrome","108.0.0","Windows 10","Ebbinghaus",1,26,"Ebbinghaus_0.61429_0.21500",925,0.61429,"Incongruent","1",0.215,"left",0,0.413
"S053","Illusion_Session2",NA,17.3770333333333,"1536x714",1.096704,60.01,"chrome","108.0.0","Windows 10","Ebbinghaus",1,27,"Ebbinghaus_0.35714_0.15857",865,0.35714,"Incongruent","1",0.15857,"left",0,0.452
"S053","Illusion_Session2",NA,17.3770333333333,"1536x714",1.096704,60.01,"chrome","108.0.0","Windows 10","Ebbinghaus",1,28,"Ebbinghaus_0.10000_0.11071",541,0.1,"Incongruent","1",0.11071,"left",0,0.633
"S053","Illusion_Session2",NA,17.3770333333333,"1536x714",1.096704,60.01,"chrome","108.0.0","Windows 10","Ebbinghaus",1,29,"Ebbinghaus_0.10000_-0.2800",987,0.1,"Incongruent","-1",0.28,"right",0,0.461
"S053","Illusion_Session2",NA,17.3770333333333,"1536x714",1.096704,60.01,"chrome","108.0.0","Windows 10","Ebbinghaus",1,30,"Ebbinghaus_-0.61429_0.28000",761,-0.61429,"Congruent","1",0.28,"left",0,0.506
"S053","Illusion_Session2",NA,17.3770333333333,"1536x714",1.096704,60.01,"chrome","108.0.0","Windows 10","Ebbinghaus",1,31,"Ebbinghaus_0.10000_0.21500",719,0.1,"Incongruent","1",0.215,"left",0,0.421
"S053","Illusion_Session2",NA,17.3770333333333,"1536x714",1.096704,60.01,"chrome","108.0.0","Windows 10","Ebbinghaus",1,32,"Ebbinghaus_-0.61429_-0.2800",820,-0.61429,"Congruent","-1",0.28,"right",0,0.576
"S053","Illusion_Session2",NA,17.3770333333333,"1536x714",1.096704,60.01,"chrome","108.0.0","Windows 10","Ebbinghaus",1,33,"Ebbinghaus_-0.61429_-0.15857",607,-0.61429,"Congruent","-1",0.15857,"right",0,0.639
"S053","Illusion_Session2",NA,17.3770333333333,"1536x714",1.096704,60.01,"chrome","108.0.0","Windows 10","Ebbinghaus",1,34,"Ebbinghaus_-0.35714_0.21500",847,-0.35714,"Congruent","1",0.215,"left",0,0.685
"S053","Illusion_Session2",NA,17.3770333333333,"1536x714",1.096704,60.01,"chrome","108.0.0","Windows 10","Ebbinghaus",1,35,"Ebbinghaus_0.10000_-0.2150",554,0.1,"Incongruent","-1",0.215,"right",0,0.509
"S053","Illusion_Session2",NA,17.3770333333333,"1536x714",1.096704,60.01,"chrome","108.0.0","Windows 10","Ebbinghaus",1,36,"Ebbinghaus_-0.35714_-0.15857",570,-0.35714,"Congruent","-1",0.15857,"right",0,0.584
"S053","Illusion_Session2",NA,17.3770333333333,"1536x714",1.096704,60.01,"chrome","108.0.0","Windows 10","Ebbinghaus",1,37,"Ebbinghaus_0.10000_-0.11071",833,0.1,"Incongruent","-1",0.11071,"right",0,0.599
"S053","Illusion_Session2",NA,17.3770333333333,"1536x714",1.096704,60.01,"chrome","108.0.0","Windows 10","Ebbinghaus",1,38,"Ebbinghaus_0.61429_0.28000",694,0.61429,"Incongruent","1",0.28,"left",0,0.416
"S053","Illusion_Session2",NA,17.3770333333333,"1536x714",1.096704,60.01,"chrome","108.0.0","Windows 10","Ebbinghaus",1,39,"Ebbinghaus_-0.87143_-0.15857",742,-0.87143,"Congruent","-1",0.15857,"right",0,0.576
"S053","Illusion_Session2",NA,17.3770333333333,"1536x714",1.096704,60.01,"chrome","108.0.0","Windows 10","Ebbinghaus",1,40,"Ebbinghaus_0.61429_0.11071",838,0.61429,"Incongruent","1",0.11071,"left",0,0.446
"S053","Illusion_Session2",NA,17.3770333333333,"1536x714",1.096704,60.01,"chrome","108.0.0","Windows 10","Ebbinghaus",1,41,"Ebbinghaus_0.35714_0.21500",830,0.35714,"Incongruent","1",0.215,"left",0,0.437
"S053","Illusion_Session2",NA,17.3770333333333,"1536x714",1.096704,60.01,"chrome","108.0.0","Windows 10","Ebbinghaus",1,42,"Ebbinghaus_-0.1000_0.21500",781,-0.1,"Congruent","1",0.215,"left",0,0.518
"S053","Illusion_Session2",NA,17.3770333333333,"1536x714",1.096704,60.01,"chrome","108.0.0","Windows 10","Ebbinghaus",1,43,"Ebbinghaus_-0.61429_0.11071",600,-0.61429,"Congruent","1",0.11071,"right",1,0.488
"S053","Illusion_Session2",NA,17.3770333333333,"1536x714",1.096704,60.01,"chrome","108.0.0","Windows 10","Ebbinghaus",1,44,"Ebbinghaus_-0.87143_0.15857",661,-0.87143,"Congruent","1",0.15857,"right",1,0.665
"S053","Illusion_Session2",NA,17.3770333333333,"1536x714",1.096704,60.01,"chrome","108.0.0","Windows 10","Ebbinghaus",1,45,"Ebbinghaus_-0.87143_-0.2150",538,-0.87143,"Congruent","-1",0.215,"right",0,0.717
"S053","Illusion_Session2",NA,17.3770333333333,"1536x714",1.096704,60.01,"chrome","108.0.0","Windows 10","Ebbinghaus",1,46,"Ebbinghaus_0.87143_-0.2150",658,0.87143,"Incongruent","-1",0.215,"right",0,0.4
"S053","Illusion_Session2",NA,17.3770333333333,"1536x714",1.096704,60.01,"chrome","108.0.0","Windows 10","Ebbinghaus",1,47,"Ebbinghaus_0.35714_-0.15857",950,0.35714,"Incongruent","-1",0.15857,"right",0,0.472
"S053","Illusion_Session2",NA,17.3770333333333,"1536x714",1.096704,60.01,"chrome","108.0.0","Windows 10","Ebbinghaus",1,48,"Ebbinghaus_-0.87143_-0.2800",905,-0.87143,"Congruent","-1",0.28,"left",1,0.434
"S053","Illusion_Session2",NA,17.3770333333333,"1536x714",1.096704,60.01,"chrome","108.0.0","Windows 10","Ebbinghaus",1,49,"Ebbinghaus_-0.1000_-0.2800",843,-0.1,"Congruent","-1",0.28,"right",0,0.625
"S053","Illusion_Session2",NA,17.3770333333333,"1536x714",1.096704,60.01,"chrome","108.0.0","Windows 10","Ebbinghaus",1,50,"Ebbinghaus_-0.61429_0.21500",781,-0.61429,"Congruent","1",0.215,"left",0,0.557
"S053","Illusion_Session2",NA,17.3770333333333,"1536x714",1.096704,60.01,"chrome","108.0.0","Windows 10","Ebbinghaus",1,51,"Ebbinghaus_-0.1000_-0.15857",639,-0.1,"Congruent","-1",0.15857,"right",0,0.575
"S053","Illusion_Session2",NA,17.3770333333333,"1536x714",1.096704,60.01,"chrome","108.0.0","Windows 10","Ebbinghaus",1,52,"Ebbinghaus_-0.1000_-0.11071",544,-0.1,"Congruent","-1",0.11071,"right",0,0.525
"S053","Illusion_Session2",NA,17.3770333333333,"1536x714",1.096704,60.01,"chrome","108.0.0","Windows 10","Ebbinghaus",1,53,"Ebbinghaus_-0.1000_0.15857",783,-0.1,"Congruent","1",0.15857,"left",0,0.528
"S053","Illusion_Session2",NA,17.3770333333333,"1536x714",1.096704,60.01,"chrome","108.0.0","Windows 10","Ebbinghaus",1,54,"Ebbinghaus_-0.87143_0.28000",916,-0.87143,"Congruent","1",0.28,"left",0,0.55
"S053","Illusion_Session2",NA,17.3770333333333,"1536x714",1.096704,60.01,"chrome","108.0.0","Windows 10","Ebbinghaus",1,55,"Ebbinghaus_-0.61429_-0.2150",710,-0.61429,"Congruent","-1",0.215,"right",0,0.497
"S053","Illusion_Session2",NA,17.3770333333333,"1536x714",1.096704,60.01,"chrome","108.0.0","Windows 10","Ebbinghaus",1,56,"Ebbinghaus_0.87143_0.15857",778,0.87143,"Incongruent","1",0.15857,"left",0,0.433
"S053","Illusion_Session2",NA,17.3770333333333,"1536x714",1.096704,60.01,"chrome","108.0.0","Windows 10","Ebbinghaus",1,57,"Ebbinghaus_0.87143_0.21500",799,0.87143,"Incongruent","1",0.215,"left",0,0.482
"S053","Illusion_Session2",NA,17.3770333333333,"1536x714",1.096704,60.01,"chrome","108.0.0","Windows 10","Ebbinghaus",1,58,"Ebbinghaus_0.61429_-0.2800",871,0.61429,"Incongruent","-1",0.28,"right",0,0.428
"S053","Illusion_Session2",NA,17.3770333333333,"1536x714",1.096704,60.01,"chrome","108.0.0","Windows 10","Ebbinghaus",1,59,"Ebbinghaus_0.87143_0.28000",669,0.87143,"Incongruent","1",0.28,"left",0,0.445
"S053","Illusion_Session2",NA,17.3770333333333,"1536x714",1.096704,60.01,"chrome","108.0.0","Windows 10","Ebbinghaus",1,60,"Ebbinghaus_-0.1000_0.11071",884,-0.1,"Congruent","1",0.11071,"left",0,0.545
"S053","Illusion_Session2",NA,17.3770333333333,"1536x714",1.096704,60.01,"chrome","108.0.0","Windows 10","Ebbinghaus",1,61,"Ebbinghaus_-0.35714_-0.11071",903,-0.35714,"Congruent","-1",0.11071,"right",0,0.479
"S053","Illusion_Session2",NA,17.3770333333333,"1536x714",1.096704,60.01,"chrome","108.0.0","Windows 10","Ebbinghaus",1,62,"Ebbinghaus_0.35714_-0.2800",689,0.35714,"Incongruent","-1",0.28,"right",0,0.542
"S053","Illusion_Session2",NA,17.3770333333333,"1536x714",1.096704,60.01,"chrome","108.0.0","Windows 10","Ebbinghaus",1,63,"Ebbinghaus_0.87143_-0.11071",720,0.87143,"Incongruent","-1",0.11071,"left",1,0.58
"S053","Illusion_Session2",NA,17.3770333333333,"1536x714",1.096704,60.01,"chrome","108.0.0","Windows 10","Ebbinghaus",1,64,"Ebbinghaus_0.35714_0.11071",863,0.35714,"Incongruent","1",0.11071,"left",0,0.462
"S053","Illusion_Session2",NA,17.3770333333333,"1536x714",1.096704,60.01,"chrome","108.0.0","Windows 10","Ebbinghaus",1,65,"Ebbinghaus_-0.61429_-0.11071",550,-0.61429,"Congruent","-1",0.11071,"right",0,0.743
"S053","Illusion_Session2",NA,17.3770333333333,"1536x714",1.096704,60.01,"chrome","108.0.0","Windows 10","Ebbinghaus",1,66,"Ebbinghaus_-0.61429_0.15857",635,-0.61429,"Congruent","1",0.15857,"left",0,0.66
"S053","Illusion_Session2",NA,17.3770333333333,"1536x714",1.096704,60.01,"chrome","108.0.0","Windows 10","Ebbinghaus",1,67,"Ebbinghaus_-0.35714_-0.2800",867,-0.35714,"Congruent","-1",0.28,"right",0,0.512
"S053","Illusion_Session2",NA,17.3770333333333,"1536x714",1.096704,60.01,"chrome","108.0.0","Windows 10","Ebbinghaus",1,68,"Ebbinghaus_0.87143_0.11071",906,0.87143,"Incongruent","1",0.11071,"left",0,0.441
"S053","Illusion_Session2",NA,17.3770333333333,"1536x714",1.096704,60.01,"chrome","108.0.0","Windows 10","Ebbinghaus",1,69,"Ebbinghaus_0.35714_0.28000",985,0.35714,"Incongruent","1",0.28,"left",0,0.516
"S053","Illusion_Session2",NA,17.3770333333333,"1536x714",1.096704,60.01,"chrome","108.0.0","Windows 10","Ebbinghaus",1,70,"Ebbinghaus_-0.87143_0.21500",599,-0.87143,"Congruent","1",0.215,"right",1,0.728
"S053","Illusion_Session2",NA,17.3770333333333,"1536x714",1.096704,60.01,"chrome","108.0.0","Windows 10","Ebbinghaus",1,71,"Ebbinghaus_0.61429_-0.15857",596,0.61429,"Incongruent","-1",0.15857,"right",0,0.571
"S053","Illusion_Session2",NA,17.3770333333333,"1536x714",1.096704,60.01,"chrome","108.0.0","Windows 10","Ebbinghaus",1,72,"Ebbinghaus_0.35714_-0.11071",951,0.35714,"Incongruent","-1",0.11071,"right",0,0.472
"S053","Illusion_Session2",NA,17.3770333333333,"1536x714",1.096704,60.01,"chrome","108.0.0","Windows 10","Ebbinghaus",1,73,"Ebbinghaus_0.87143_-0.2800",671,0.87143,"Incongruent","-1",0.28,"right",0,0.823
"S053","Illusion_Session2",NA,17.3770333333333,"1536x714",1.096704,60.01,"chrome","108.0.0","Windows 10","Ebbinghaus",1,74,"Ebbinghaus_-0.35714_0.11071",801,-0.35714,"Congruent","1",0.11071,"left",0,0.656
"S053","Illusion_Session2",NA,17.3770333333333,"1536x714",1.096704,60.01,"chrome","108.0.0","Windows 10","Ebbinghaus",1,75,"Ebbinghaus_0.10000_0.15857",575,0.1,"Incongruent","1",0.15857,"left",0,0.736
"S053","Illusion_Session2",NA,17.3770333333333,"1536x714",1.096704,60.01,"chrome","108.0.0","Windows 10","Ebbinghaus",1,76,"Ebbinghaus_-0.87143_0.11071",669,-0.87143,"Congruent","1",0.11071,"right",1,0.582
"S053","Illusion_Session2",NA,17.3770333333333,"1536x714",1.096704,60.01,"chrome","108.0.0","Windows 10","Ebbinghaus",1,77,"Ebbinghaus_0.10000_-0.15857",966,0.1,"Incongruent","-1",0.15857,"right",0,0.645
"S053","Illusion_Session2",NA,17.3770333333333,"1536x714",1.096704,60.01,"chrome","108.0.0","Windows 10","Ebbinghaus",1,78,"Ebbinghaus_-0.35714_0.28000",973,-0.35714,"Congruent","1",0.28,"left",0,0.644
"S053","Illusion_Session2",NA,17.3770333333333,"1536x714",1.096704,60.01,"chrome","108.0.0","Windows 10","Ebbinghaus",1,79,"Ebbinghaus_-0.1000_0.28000",950,-0.1,"Congruent","1",0.28,"left",0,0.467
"S053","Illusion_Session2",NA,17.3770333333333,"1536x714",1.096704,60.01,"chrome","108.0.0","Windows 10","Ebbinghaus",1,80,"Ebbinghaus_0.87143_-0.15857",792,0.87143,"Incongruent","-1",0.15857,"left",1,0.629
"S053","Illusion_Session2",NA,17.3770333333333,"1536x714",1.096704,60.01,"chrome","108.0.0","Windows 10","Ebbinghaus",1,81,"Ebbinghaus_-0.35714_-0.2150",942,-0.35714,"Congruent","-1",0.215,"right",0,0.59
"S053","Illusion_Session2",NA,17.3770333333333,"1536x714",1.096704,60.01,"chrome","108.0.0","Windows 10","Ebbinghaus",1,82,"Ebbinghaus_0.61429_0.15857",736,0.61429,"Incongruent","1",0.15857,"left",0,0.521
"S053","Illusion_Session2",NA,17.3770333333333,"1536x714",1.096704,60.01,"chrome","108.0.0","Windows 10","MullerLyer",1,1,"MullerLyer_-20.04286_-0.14541",781,-20.04286,"Congruent","-1",0.14541,"down",0,0.42
"S053","Illusion_Session2",NA,17.3770333333333,"1536x714",1.096704,60.01,"chrome","108.0.0","Windows 10","MullerLyer",1,2,"MullerLyer_-20.04286_-0.3500",705,-20.04286,"Congruent","-1",0.35,"down",0,0.398
"S053","Illusion_Session2",NA,17.3770333333333,"1536x714",1.096704,60.01,"chrome","108.0.0","Windows 10","MullerLyer",1,3,"MullerLyer_14.12857_-0.07627",914,14.12857,"Incongruent","-1",0.07627,"up",1,0.439
"S053","Illusion_Session2",NA,17.3770333333333,"1536x714",1.096704,60.01,"chrome","108.0.0","Windows 10","MullerLyer",1,4,"MullerLyer_-8.21429_0.14541",924,-8.21429,"Congruent","1",0.14541,"up",0,0.381
"S053","Illusion_Session2",NA,17.3770333333333,"1536x714",1.096704,60.01,"chrome","108.0.0","Windows 10","MullerLyer",1,5,"MullerLyer_20.04286_0.35000",893,20.04286,"Incongruent","1",0.35,"up",0,0.707
"S053","Illusion_Session2",NA,17.3770333333333,"1536x714",1.096704,60.01,"chrome","108.0.0","Windows 10","MullerLyer",1,6,"MullerLyer_20.04286_-0.07627",935,20.04286,"Incongruent","-1",0.07627,"up",1,0.46
"S053","Illusion_Session2",NA,17.3770333333333,"1536x714",1.096704,60.01,"chrome","108.0.0","Windows 10","MullerLyer",1,7,"MullerLyer_20.04286_-0.23665",907,20.04286,"Incongruent","-1",0.23665,"down",0,0.803
"S053","Illusion_Session2",NA,17.3770333333333,"1536x714",1.096704,60.01,"chrome","108.0.0","Windows 10","MullerLyer",1,8,"MullerLyer_-8.21429_-0.23665",578,-8.21429,"Congruent","-1",0.23665,"down",0,0.477
"S053","Illusion_Session2",NA,17.3770333333333,"1536x714",1.096704,60.01,"chrome","108.0.0","Windows 10","MullerLyer",1,9,"MullerLyer_-14.12857_-0.07627",888,-14.12857,"Congruent","-1",0.07627,"down",0,0.458
"S053","Illusion_Session2",NA,17.3770333333333,"1536x714",1.096704,60.01,"chrome","108.0.0","Windows 10","MullerLyer",1,10,"MullerLyer_20.04286_-0.3500",894,20.04286,"Incongruent","-1",0.35,"up",1,0.534
"S053","Illusion_Session2",NA,17.3770333333333,"1536x714",1.096704,60.01,"chrome","108.0.0","Windows 10","MullerLyer",1,11,"MullerLyer_8.21429_-0.14541",569,8.21429,"Incongruent","-1",0.14541,"down",0,0.522
"S053","Illusion_Session2",NA,17.3770333333333,"1536x714",1.096704,60.01,"chrome","108.0.0","Windows 10","MullerLyer",1,12,"MullerLyer_2.30000_-0.07627",821,2.3,"Incongruent","-1",0.07627,"up",1,0.785
"S053","Illusion_Session2",NA,17.3770333333333,"1536x714",1.096704,60.01,"chrome","108.0.0","Windows 10","MullerLyer",1,13,"MullerLyer_-2.3000_-0.23665",709,-2.3,"Congruent","-1",0.23665,"down",0,0.539
"S053","Illusion_Session2",NA,17.3770333333333,"1536x714",1.096704,60.01,"chrome","108.0.0","Windows 10","MullerLyer",1,14,"MullerLyer_-20.04286_0.14541",566,-20.04286,"Congruent","1",0.14541,"up",0,0.551
"S053","Illusion_Session2",NA,17.3770333333333,"1536x714",1.096704,60.01,"chrome","108.0.0","Windows 10","MullerLyer",1,15,"MullerLyer_-14.12857_0.14541",934,-14.12857,"Congruent","1",0.14541,"up",0,0.443
"S053","Illusion_Session2",NA,17.3770333333333,"1536x714",1.096704,60.01,"chrome","108.0.0","Windows 10","MullerLyer",1,16,"MullerLyer_8.21429_-0.23665",699,8.21429,"Incongruent","-1",0.23665,"down",0,0.521
"S053","Illusion_Session2",NA,17.3770333333333,"1536x714",1.096704,60.01,"chrome","108.0.0","Windows 10","MullerLyer",1,17,"MullerLyer_14.12857_0.14541",723,14.12857,"Incongruent","1",0.14541,"down",1,0.478
"S053","Illusion_Session2",NA,17.3770333333333,"1536x714",1.096704,60.01,"chrome","108.0.0","Windows 10","MullerLyer",1,18,"MullerLyer_14.12857_-0.23665",525,14.12857,"Incongruent","-1",0.23665,"down",0,0.645
"S053","Illusion_Session2",NA,17.3770333333333,"1536x714",1.096704,60.01,"chrome","108.0.0","Windows 10","MullerLyer",1,19,"MullerLyer_2.30000_-0.3500",757,2.3,"Incongruent","-1",0.35,"down",0,0.524
"S053","Illusion_Session2",NA,17.3770333333333,"1536x714",1.096704,60.01,"chrome","108.0.0","Windows 10","MullerLyer",1,20,"MullerLyer_-14.12857_-0.23665",994,-14.12857,"Congruent","-1",0.23665,"down",0,0.429
"S053","Illusion_Session2",NA,17.3770333333333,"1536x714",1.096704,60.01,"chrome","108.0.0","Windows 10","MullerLyer",1,21,"MullerLyer_-8.21429_0.35000",878,-8.21429,"Congruent","1",0.35,"up",0,0.427
"S053","Illusion_Session2",NA,17.3770333333333,"1536x714",1.096704,60.01,"chrome","108.0.0","Windows 10","MullerLyer",1,22,"MullerLyer_20.04286_0.07627",887,20.04286,"Incongruent","1",0.07627,"down",1,0.461
"S053","Illusion_Session2",NA,17.3770333333333,"1536x714",1.096704,60.01,"chrome","108.0.0","Windows 10","MullerLyer",1,23,"MullerLyer_-2.3000_0.14541",923,-2.3,"Congruent","1",0.14541,"up",0,0.493
"S053","Illusion_Session2",NA,17.3770333333333,"1536x714",1.096704,60.01,"chrome","108.0.0","Windows 10","MullerLyer",1,24,"MullerLyer_-14.12857_0.07627",962,-14.12857,"Congruent","1",0.07627,"up",0,0.444
"S053","Illusion_Session2",NA,17.3770333333333,"1536x714",1.096704,60.01,"chrome","108.0.0","Windows 10","MullerLyer",1,25,"MullerLyer_14.12857_0.23665",641,14.12857,"Incongruent","1",0.23665,"down",1,0.547
"S053","Illusion_Session2",NA,17.3770333333333,"1536x714",1.096704,60.01,"chrome","108.0.0","Windows 10","MullerLyer",1,26,"MullerLyer_-20.04286_0.23665",917,-20.04286,"Congruent","1",0.23665,"up",0,0.403
"S053","Illusion_Session2",NA,17.3770333333333,"1536x714",1.096704,60.01,"chrome","108.0.0","Windows 10","MullerLyer",1,27,"MullerLyer_-14.12857_-0.14541",844,-14.12857,"Congruent","-1",0.14541,"down",0,0.437
"S053","Illusion_Session2",NA,17.3770333333333,"1536x714",1.096704,60.01,"chrome","108.0.0","Windows 10","MullerLyer",1,28,"MullerLyer_-2.3000_-0.14541",658,-2.3,"Congruent","-1",0.14541,"down",0,0.511
"S053","Illusion_Session2",NA,17.3770333333333,"1536x714",1.096704,60.01,"chrome","108.0.0","Windows 10","MullerLyer",1,29,"MullerLyer_-20.04286_-0.23665",859,-20.04286,"Congruent","-1",0.23665,"down",0,0.422
"S053","Illusion_Session2",NA,17.3770333333333,"1536x714",1.096704,60.01,"chrome","108.0.0","Windows 10","MullerLyer",1,30,"MullerLyer_-8.21429_-0.3500",905,-8.21429,"Congruent","-1",0.35,"down",0,0.405
"S053","Illusion_Session2",NA,17.3770333333333,"1536x714",1.096704,60.01,"chrome","108.0.0","Windows 10","MullerLyer",1,31,"MullerLyer_8.21429_0.07627",889,8.21429,"Incongruent","1",0.07627,"down",1,0.417
"S053","Illusion_Session2",NA,17.3770333333333,"1536x714",1.096704,60.01,"chrome","108.0.0","Windows 10","MullerLyer",1,32,"MullerLyer_-2.3000_0.07627",682,-2.3,"Congruent","1",0.07627,"up",0,0.465
"S053","Illusion_Session2",NA,17.3770333333333,"1536x714",1.096704,60.01,"chrome","108.0.0","Windows 10","MullerLyer",1,33,"MullerLyer_-14.12857_0.23665",955,-14.12857,"Congruent","1",0.23665,"up",0,0.457
"S053","Illusion_Session2",NA,17.3770333333333,"1536x714",1.096704,60.01,"chrome","108.0.0","Windows 10","MullerLyer",1,34,"MullerLyer_-2.3000_-0.3500",923,-2.3,"Congruent","-1",0.35,"down",0,0.503
"S053","Illusion_Session2",NA,17.3770333333333,"1536x714",1.096704,60.01,"chrome","108.0.0","Windows 10","MullerLyer",1,35,"MullerLyer_-2.3000_0.23665",800,-2.3,"Congruent","1",0.23665,"up",0,0.445
"S053","Illusion_Session2",NA,17.3770333333333,"1536x714",1.096704,60.01,"chrome","108.0.0","Windows 10","MullerLyer",1,36,"MullerLyer_14.12857_-0.14541",617,14.12857,"Incongruent","-1",0.14541,"down",0,0.612
"S053","Illusion_Session2",NA,17.3770333333333,"1536x714",1.096704,60.01,"chrome","108.0.0","Windows 10","MullerLyer",1,37,"MullerLyer_20.04286_0.23665",757,20.04286,"Incongruent","1",0.23665,"down",1,0.446
"S053","Illusion_Session2",NA,17.3770333333333,"1536x714",1.096704,60.01,"chrome","108.0.0","Windows 10","MullerLyer",1,38,"MullerLyer_-14.12857_0.35000",815,-14.12857,"Congruent","1",0.35,"up",0,0.413
"S053","Illusion_Session2",NA,17.3770333333333,"1536x714",1.096704,60.01,"chrome","108.0.0","Windows 10","MullerLyer",1,39,"MullerLyer_-20.04286_0.35000",591,-20.04286,"Congruent","1",0.35,"up",0,0.415
"S053","Illusion_Session2",NA,17.3770333333333,"1536x714",1.096704,60.01,"chrome","108.0.0","Windows 10","MullerLyer",1,40,"MullerLyer_14.12857_0.07627",872,14.12857,"Incongruent","1",0.07627,"down",1,0.516
"S053","Illusion_Session2",NA,17.3770333333333,"1536x714",1.096704,60.01,"chrome","108.0.0","Windows 10","MullerLyer",1,41,"MullerLyer_2.30000_0.23665",566,2.3,"Incongruent","1",0.23665,"up",0,0.516
"S053","Illusion_Session2",NA,17.3770333333333,"1536x714",1.096704,60.01,"chrome","108.0.0","Windows 10","MullerLyer",1,42,"MullerLyer_8.21429_-0.07627",700,8.21429,"Incongruent","-1",0.07627,"up",1,0.604
"S053","Illusion_Session2",NA,17.3770333333333,"1536x714",1.096704,60.01,"chrome","108.0.0","Windows 10","MullerLyer",1,43,"MullerLyer_8.21429_0.14541",673,8.21429,"Incongruent","1",0.14541,"down",1,0.602
"S053","Illusion_Session2",NA,17.3770333333333,"1536x714",1.096704,60.01,"chrome","108.0.0","Windows 10","MullerLyer",1,44,"MullerLyer_8.21429_0.35000",653,8.21429,"Incongruent","1",0.35,"up",0,0.427
"S053","Illusion_Session2",NA,17.3770333333333,"1536x714",1.096704,60.01,"chrome","108.0.0","Windows 10","MullerLyer",1,45,"MullerLyer_14.12857_-0.3500",961,14.12857,"Incongruent","-1",0.35,"down",0,0.506
"S053","Illusion_Session2",NA,17.3770333333333,"1536x714",1.096704,60.01,"chrome","108.0.0","Windows 10","MullerLyer",1,46,"MullerLyer_2.30000_-0.14541",641,2.3,"Incongruent","-1",0.14541,"up",1,0.597
"S053","Illusion_Session2",NA,17.3770333333333,"1536x714",1.096704,60.01,"chrome","108.0.0","Windows 10","MullerLyer",1,47,"MullerLyer_2.30000_0.35000",792,2.3,"Incongruent","1",0.35,"up",0,0.616
"S053","Illusion_Session2",NA,17.3770333333333,"1536x714",1.096704,60.01,"chrome","108.0.0","Windows 10","MullerLyer",1,48,"MullerLyer_8.21429_-0.3500",618,8.21429,"Incongruent","-1",0.35,"down",0,0.434
"S053","Illusion_Session2",NA,17.3770333333333,"1536x714",1.096704,60.01,"chrome","108.0.0","Windows 10","MullerLyer",1,49,"MullerLyer_-2.3000_0.35000",845,-2.3,"Congruent","1",0.35,"up",0,0.446
"S053","Illusion_Session2",NA,17.3770333333333,"1536x714",1.096704,60.01,"chrome","108.0.0","Windows 10","MullerLyer",1,50,"MullerLyer_-8.21429_0.07627",955,-8.21429,"Congruent","1",0.07627,"up",0,0.437
"S053","Illusion_Session2",NA,17.3770333333333,"1536x714",1.096704,60.01,"chrome","108.0.0","Windows 10","MullerLyer",1,51,"MullerLyer_-8.21429_-0.14541",889,-8.21429,"Congruent","-1",0.14541,"down",0,0.534
"S053","Illusion_Session2",NA,17.3770333333333,"1536x714",1.096704,60.01,"chrome","108.0.0","Windows 10","MullerLyer",1,52,"MullerLyer_-14.12857_-0.3500",796,-14.12857,"Congruent","-1",0.35,"down",0,0.432
"S053","Illusion_Session2",NA,17.3770333333333,"1536x714",1.096704,60.01,"chrome","108.0.0","Windows 10","MullerLyer",1,53,"MullerLyer_-8.21429_0.23665",574,-8.21429,"Congruent","1",0.23665,"up",0,0.506
"S053","Illusion_Session2",NA,17.3770333333333,"1536x714",1.096704,60.01,"chrome","108.0.0","Windows 10","MullerLyer",1,54,"MullerLyer_-20.04286_-0.07627",512,-20.04286,"Congruent","-1",0.07627,"down",0,0.471
"S053","Illusion_Session2",NA,17.3770333333333,"1536x714",1.096704,60.01,"chrome","108.0.0","Windows 10","MullerLyer",1,55,"MullerLyer_2.30000_0.14541",567,2.3,"Incongruent","1",0.14541,"up",0,0.51
"S053","Illusion_Session2",NA,17.3770333333333,"1536x714",1.096704,60.01,"chrome","108.0.0","Windows 10","MullerLyer",1,56,"MullerLyer_2.30000_0.07627",736,2.3,"Incongruent","1",0.07627,"down",1,0.484
"S053","Illusion_Session2",NA,17.3770333333333,"1536x714",1.096704,60.01,"chrome","108.0.0","Windows 10","MullerLyer",1,57,"MullerLyer_-2.3000_-0.07627",796,-2.3,"Congruent","-1",0.07627,"down",0,0.46
"S053","Illusion_Session2",NA,17.3770333333333,"1536x714",1.096704,60.01,"chrome","108.0.0","Windows 10","MullerLyer",1,58,"MullerLyer_14.12857_0.35000",772,14.12857,"Incongruent","1",0.35,"up",0,0.534
"S053","Illusion_Session2",NA,17.3770333333333,"1536x714",1.096704,60.01,"chrome","108.0.0","Windows 10","MullerLyer",1,59,"MullerLyer_8.21429_0.23665",782,8.21429,"Incongruent","1",0.23665,"up",0,0.648
"S053","Illusion_Session2",NA,17.3770333333333,"1536x714",1.096704,60.01,"chrome","108.0.0","Windows 10","MullerLyer",1,60,"MullerLyer_20.04286_-0.14541",818,20.04286,"Incongruent","-1",0.14541,"down",0,0.667
"S053","Illusion_Session2",NA,17.3770333333333,"1536x714",1.096704,60.01,"chrome","108.0.0","Windows 10","MullerLyer",1,61,"MullerLyer_-20.04286_0.07627",601,-20.04286,"Congruent","1",0.07627,"up",0,0.508
"S053","Illusion_Session2",NA,17.3770333333333,"1536x714",1.096704,60.01,"chrome","108.0.0","Windows 10","MullerLyer",1,62,"MullerLyer_20.04286_0.14541",697,20.04286,"Incongruent","1",0.14541,"down",1,0.593
"S053","Illusion_Session2",NA,17.3770333333333,"1536x714",1.096704,60.01,"chrome","108.0.0","Windows 10","MullerLyer",1,63,"MullerLyer_2.30000_-0.23665",668,2.3,"Incongruent","-1",0.23665,"down",0,0.564
"S053","Illusion_Session2",NA,17.3770333333333,"1536x714",1.096704,60.01,"chrome","108.0.0","Windows 10","MullerLyer",1,64,"MullerLyer_-8.21429_-0.07627",923,-8.21429,"Congruent","-1",0.07627,"down",0,0.566
"S053","Illusion_Session2",NA,17.3770333333333,"1536x714",1.096704,60.01,"chrome","108.0.0","Windows 10","VerticalHorizontal",1,1,"VerticalHorizontal_20.27143_0.16217",652,20.27143,"Incongruent","1",0.16217,"left",0,0.418
"S053","Illusion_Session2",NA,17.3770333333333,"1536x714",1.096704,60.01,"chrome","108.0.0","Windows 10","VerticalHorizontal",1,2,"VerticalHorizontal_-28.75714_-0.1096",656,-28.75714,"Congruent","-1",0.1096,"right",0,0.371
"S053","Illusion_Session2",NA,17.3770333333333,"1536x714",1.096704,60.01,"chrome","108.0.0","Windows 10","VerticalHorizontal",1,3,"VerticalHorizontal_-28.75714_-0.0673",606,-28.75714,"Congruent","-1",0.0673,"right",0,0.434
"S053","Illusion_Session2",NA,17.3770333333333,"1536x714",1.096704,60.01,"chrome","108.0.0","Windows 10","VerticalHorizontal",1,4,"VerticalHorizontal_11.78571_0.10960",573,11.78571,"Incongruent","1",0.1096,"left",0,0.426
"S053","Illusion_Session2",NA,17.3770333333333,"1536x714",1.096704,60.01,"chrome","108.0.0","Windows 10","VerticalHorizontal",1,5,"VerticalHorizontal_-3.3000_-0.2250",829,-3.3,"Congruent","-1",0.225,"right",0,0.403
"S053","Illusion_Session2",NA,17.3770333333333,"1536x714",1.096704,60.01,"chrome","108.0.0","Windows 10","VerticalHorizontal",1,6,"VerticalHorizontal_3.30000_-0.2250",822,3.3,"Incongruent","-1",0.225,"right",0,0.523
"S053","Illusion_Session2",NA,17.3770333333333,"1536x714",1.096704,60.01,"chrome","108.0.0","Windows 10","VerticalHorizontal",1,7,"VerticalHorizontal_-20.27143_-0.0673",689,-20.27143,"Congruent","-1",0.0673,"left",1,0.548
"S053","Illusion_Session2",NA,17.3770333333333,"1536x714",1.096704,60.01,"chrome","108.0.0","Windows 10","VerticalHorizontal",1,8,"VerticalHorizontal_3.30000_-0.1096",715,3.3,"Incongruent","-1",0.1096,"right",0,0.53
"S053","Illusion_Session2",NA,17.3770333333333,"1536x714",1.096704,60.01,"chrome","108.0.0","Windows 10","VerticalHorizontal",1,9,"VerticalHorizontal_28.75714_0.16217",654,28.75714,"Incongruent","1",0.16217,"right",1,0.569
"S053","Illusion_Session2",NA,17.3770333333333,"1536x714",1.096704,60.01,"chrome","108.0.0","Windows 10","VerticalHorizontal",1,10,"VerticalHorizontal_-3.3000_-0.1096",933,-3.3,"Congruent","-1",0.1096,"right",0,0.551
"S053","Illusion_Session2",NA,17.3770333333333,"1536x714",1.096704,60.01,"chrome","108.0.0","Windows 10","VerticalHorizontal",1,11,"VerticalHorizontal_-20.27143_0.22500",670,-20.27143,"Congruent","1",0.225,"left",0,0.494
"S053","Illusion_Session2",NA,17.3770333333333,"1536x714",1.096704,60.01,"chrome","108.0.0","Windows 10","VerticalHorizontal",1,12,"VerticalHorizontal_28.75714_0.06730",894,28.75714,"Incongruent","1",0.0673,"right",1,0.693
"S053","Illusion_Session2",NA,17.3770333333333,"1536x714",1.096704,60.01,"chrome","108.0.0","Windows 10","VerticalHorizontal",1,13,"VerticalHorizontal_-11.78571_0.06730",724,-11.78571,"Congruent","1",0.0673,"left",0,0.594
"S053","Illusion_Session2",NA,17.3770333333333,"1536x714",1.096704,60.01,"chrome","108.0.0","Windows 10","VerticalHorizontal",1,14,"VerticalHorizontal_-20.27143_0.16217",605,-20.27143,"Congruent","1",0.16217,"left",0,0.674
"S053","Illusion_Session2",NA,17.3770333333333,"1536x714",1.096704,60.01,"chrome","108.0.0","Windows 10","VerticalHorizontal",1,15,"VerticalHorizontal_3.30000_0.06730",923,3.3,"Incongruent","1",0.0673,"left",0,0.645
"S053","Illusion_Session2",NA,17.3770333333333,"1536x714",1.096704,60.01,"chrome","108.0.0","Windows 10","VerticalHorizontal",1,16,"VerticalHorizontal_-28.75714_-0.16217",981,-28.75714,"Congruent","-1",0.16217,"right",0,0.378
"S053","Illusion_Session2",NA,17.3770333333333,"1536x714",1.096704,60.01,"chrome","108.0.0","Windows 10","VerticalHorizontal",1,17,"VerticalHorizontal_11.78571_0.16217",879,11.78571,"Incongruent","1",0.16217,"right",1,0.78
"S053","Illusion_Session2",NA,17.3770333333333,"1536x714",1.096704,60.01,"chrome","108.0.0","Windows 10","VerticalHorizontal",1,18,"VerticalHorizontal_20.27143_-0.1096",866,20.27143,"Incongruent","-1",0.1096,"left",1,0.677
"S053","Illusion_Session2",NA,17.3770333333333,"1536x714",1.096704,60.01,"chrome","108.0.0","Windows 10","VerticalHorizontal",1,19,"VerticalHorizontal_-28.75714_0.16217",685,-28.75714,"Congruent","1",0.16217,"left",0,0.474
"S053","Illusion_Session2",NA,17.3770333333333,"1536x714",1.096704,60.01,"chrome","108.0.0","Windows 10","VerticalHorizontal",1,20,"VerticalHorizontal_-11.78571_0.22500",551,-11.78571,"Congruent","1",0.225,"left",0,0.557
"S053","Illusion_Session2",NA,17.3770333333333,"1536x714",1.096704,60.01,"chrome","108.0.0","Windows 10","VerticalHorizontal",1,21,"VerticalHorizontal_3.30000_0.16217",567,3.3,"Incongruent","1",0.16217,"left",0,0.536
"S053","Illusion_Session2",NA,17.3770333333333,"1536x714",1.096704,60.01,"chrome","108.0.0","Windows 10","VerticalHorizontal",1,22,"VerticalHorizontal_28.75714_-0.1096",583,28.75714,"Incongruent","-1",0.1096,"right",0,0.638
"S053","Illusion_Session2",NA,17.3770333333333,"1536x714",1.096704,60.01,"chrome","108.0.0","Windows 10","VerticalHorizontal",1,23,"VerticalHorizontal_-11.78571_-0.2250",728,-11.78571,"Congruent","-1",0.225,"right",0,0.466
"S053","Illusion_Session2",NA,17.3770333333333,"1536x714",1.096704,60.01,"chrome","108.0.0","Windows 10","VerticalHorizontal",1,24,"VerticalHorizontal_28.75714_0.10960",747,28.75714,"Incongruent","1",0.1096,"right",1,0.752
"S053","Illusion_Session2",NA,17.3770333333333,"1536x714",1.096704,60.01,"chrome","108.0.0","Windows 10","VerticalHorizontal",1,25,"VerticalHorizontal_-20.27143_-0.1096",770,-20.27143,"Congruent","-1",0.1096,"right",0,0.563
"S053","Illusion_Session2",NA,17.3770333333333,"1536x714",1.096704,60.01,"chrome","108.0.0","Windows 10","VerticalHorizontal",1,26,"VerticalHorizontal_-20.27143_0.10960",506,-20.27143,"Congruent","1",0.1096,"left",0,0.48
"S053","Illusion_Session2",NA,17.3770333333333,"1536x714",1.096704,60.01,"chrome","108.0.0","Windows 10","VerticalHorizontal",1,27,"VerticalHorizontal_20.27143_0.10960",846,20.27143,"Incongruent","1",0.1096,"right",1,0.735
"S053","Illusion_Session2",NA,17.3770333333333,"1536x714",1.096704,60.01,"chrome","108.0.0","Windows 10","VerticalHorizontal",1,28,"VerticalHorizontal_-20.27143_-0.2250",945,-20.27143,"Congruent","-1",0.225,"right",0,0.44
"S053","Illusion_Session2",NA,17.3770333333333,"1536x714",1.096704,60.01,"chrome","108.0.0","Windows 10","VerticalHorizontal",1,29,"VerticalHorizontal_11.78571_-0.0673",932,11.78571,"Incongruent","-1",0.0673,"right",0,0.692
"S053","Illusion_Session2",NA,17.3770333333333,"1536x714",1.096704,60.01,"chrome","108.0.0","Windows 10","VerticalHorizontal",1,30,"VerticalHorizontal_-20.27143_0.06730",510,-20.27143,"Congruent","1",0.0673,"left",0,0.525
"S053","Illusion_Session2",NA,17.3770333333333,"1536x714",1.096704,60.01,"chrome","108.0.0","Windows 10","VerticalHorizontal",1,31,"VerticalHorizontal_3.30000_0.10960",907,3.3,"Incongruent","1",0.1096,"left",0,0.47
"S053","Illusion_Session2",NA,17.3770333333333,"1536x714",1.096704,60.01,"chrome","108.0.0","Windows 10","VerticalHorizontal",1,32,"VerticalHorizontal_28.75714_-0.2250",647,28.75714,"Incongruent","-1",0.225,"right",0,0.876
"S053","Illusion_Session2",NA,17.3770333333333,"1536x714",1.096704,60.01,"chrome","108.0.0","Windows 10","VerticalHorizontal",1,33,"VerticalHorizontal_-20.27143_-0.16217",993,-20.27143,"Congruent","-1",0.16217,"right",0,0.456
"S053","Illusion_Session2",NA,17.3770333333333,"1536x714",1.096704,60.01,"chrome","108.0.0","Windows 10","VerticalHorizontal",1,34,"VerticalHorizontal_20.27143_0.06730",756,20.27143,"Incongruent","1",0.0673,"left",0,0.693
"S053","Illusion_Session2",NA,17.3770333333333,"1536x714",1.096704,60.01,"chrome","108.0.0","Windows 10","VerticalHorizontal",1,35,"VerticalHorizontal_-11.78571_-0.1096",570,-11.78571,"Congruent","-1",0.1096,"right",0,0.823
"S053","Illusion_Session2",NA,17.3770333333333,"1536x714",1.096704,60.01,"chrome","108.0.0","Windows 10","VerticalHorizontal",1,36,"VerticalHorizontal_20.27143_-0.0673",579,20.27143,"Incongruent","-1",0.0673,"left",1,0.674
"S053","Illusion_Session2",NA,17.3770333333333,"1536x714",1.096704,60.01,"chrome","108.0.0","Windows 10","VerticalHorizontal",1,37,"VerticalHorizontal_-28.75714_0.10960",850,-28.75714,"Congruent","1",0.1096,"left",0,0.465
"S053","Illusion_Session2",NA,17.3770333333333,"1536x714",1.096704,60.01,"chrome","108.0.0","Windows 10","VerticalHorizontal",1,38,"VerticalHorizontal_28.75714_-0.16217",626,28.75714,"Incongruent","-1",0.16217,"left",1,0.886
"S053","Illusion_Session2",NA,17.3770333333333,"1536x714",1.096704,60.01,"chrome","108.0.0","Windows 10","VerticalHorizontal",1,39,"VerticalHorizontal_11.78571_-0.2250",920,11.78571,"Incongruent","-1",0.225,"right",0,0.586
"S053","Illusion_Session2",NA,17.3770333333333,"1536x714",1.096704,60.01,"chrome","108.0.0","Windows 10","VerticalHorizontal",1,40,"VerticalHorizontal_-28.75714_0.22500",514,-28.75714,"Congruent","1",0.225,"left",0,0.576
"S053","Illusion_Session2",NA,17.3770333333333,"1536x714",1.096704,60.01,"chrome","108.0.0","Windows 10","VerticalHorizontal",1,41,"VerticalHorizontal_3.30000_-0.0673",766,3.3,"Incongruent","-1",0.0673,"right",0,0.601
"S053","Illusion_Session2",NA,17.3770333333333,"1536x714",1.096704,60.01,"chrome","108.0.0","Windows 10","VerticalHorizontal",1,42,"VerticalHorizontal_-11.78571_-0.16217",842,-11.78571,"Congruent","-1",0.16217,"right",0,0.542
"S053","Illusion_Session2",NA,17.3770333333333,"1536x714",1.096704,60.01,"chrome","108.0.0","Windows 10","VerticalHorizontal",1,43,"VerticalHorizontal_3.30000_-0.16217",929,3.3,"Incongruent","-1",0.16217,"right",0,0.564
"S053","Illusion_Session2",NA,17.3770333333333,"1536x714",1.096704,60.01,"chrome","108.0.0","Windows 10","VerticalHorizontal",1,44,"VerticalHorizontal_-3.3000_0.06730",575,-3.3,"Congruent","1",0.0673,"right",1,0.572
"S053","Illusion_Session2",NA,17.3770333333333,"1536x714",1.096704,60.01,"chrome","108.0.0","Windows 10","VerticalHorizontal",1,45,"VerticalHorizontal_-28.75714_0.06730",548,-28.75714,"Congruent","1",0.0673,"left",0,0.535
"S053","Illusion_Session2",NA,17.3770333333333,"1536x714",1.096704,60.01,"chrome","108.0.0","Windows 10","VerticalHorizontal",1,46,"VerticalHorizontal_-11.78571_-0.0673",596,-11.78571,"Congruent","-1",0.0673,"right",0,0.614
"S053","Illusion_Session2",NA,17.3770333333333,"1536x714",1.096704,60.01,"chrome","108.0.0","Windows 10","VerticalHorizontal",1,47,"VerticalHorizontal_11.78571_0.06730",995,11.78571,"Incongruent","1",0.0673,"left",0,0.424
"S053","Illusion_Session2",NA,17.3770333333333,"1536x714",1.096704,60.01,"chrome","108.0.0","Windows 10","VerticalHorizontal",1,48,"VerticalHorizontal_28.75714_0.22500",689,28.75714,"Incongruent","1",0.225,"right",1,0.494
"S053","Illusion_Session2",NA,17.3770333333333,"1536x714",1.096704,60.01,"chrome","108.0.0","Windows 10","VerticalHorizontal",1,49,"VerticalHorizontal_20.27143_0.22500",514,20.27143,"Incongruent","1",0.225,"left",0,0.745
"S053","Illusion_Session2",NA,17.3770333333333,"1536x714",1.096704,60.01,"chrome","108.0.0","Windows 10","VerticalHorizontal",1,50,"VerticalHorizontal_-11.78571_0.16217",722,-11.78571,"Congruent","1",0.16217,"left",0,0.485
"S053","Illusion_Session2",NA,17.3770333333333,"1536x714",1.096704,60.01,"chrome","108.0.0","Windows 10","VerticalHorizontal",1,51,"VerticalHorizontal_20.27143_-0.16217",752,20.27143,"Incongruent","-1",0.16217,"right",0,0.601
"S053","Illusion_Session2",NA,17.3770333333333,"1536x714",1.096704,60.01,"chrome","108.0.0","Windows 10","VerticalHorizontal",1,52,"VerticalHorizontal_-11.78571_0.10960",628,-11.78571,"Congruent","1",0.1096,"left",0,0.601
"S053","Illusion_Session2",NA,17.3770333333333,"1536x714",1.096704,60.01,"chrome","108.0.0","Windows 10","VerticalHorizontal",1,53,"VerticalHorizontal_28.75714_-0.0673",745,28.75714,"Incongruent","-1",0.0673,"left",1,0.71
"S053","Illusion_Session2",NA,17.3770333333333,"1536x714",1.096704,60.01,"chrome","108.0.0","Windows 10","VerticalHorizontal",1,54,"VerticalHorizontal_3.30000_0.22500",750,3.3,"Incongruent","1",0.225,"left",0,0.464
"S053","Illusion_Session2",NA,17.3770333333333,"1536x714",1.096704,60.01,"chrome","108.0.0","Windows 10","VerticalHorizontal",1,55,"VerticalHorizontal_-3.3000_-0.16217",616,-3.3,"Congruent","-1",0.16217,"right",0,0.485
"S053","Illusion_Session2",NA,17.3770333333333,"1536x714",1.096704,60.01,"chrome","108.0.0","Windows 10","VerticalHorizontal",1,56,"VerticalHorizontal_-3.3000_-0.0673",530,-3.3,"Congruent","-1",0.0673,"left",1,1.011
"S053","Illusion_Session2",NA,17.3770333333333,"1536x714",1.096704,60.01,"chrome","108.0.0","Windows 10","VerticalHorizontal",1,57,"VerticalHorizontal_-3.3000_0.16217",801,-3.3,"Congruent","1",0.16217,"left",0,0.642
"S053","Illusion_Session2",NA,17.3770333333333,"1536x714",1.096704,60.01,"chrome","108.0.0","Windows 10","VerticalHorizontal",1,58,"VerticalHorizontal_-3.3000_0.10960",514,-3.3,"Congruent","1",0.1096,"left",0,0.537
"S053","Illusion_Session2",NA,17.3770333333333,"1536x714",1.096704,60.01,"chrome","108.0.0","Windows 10","VerticalHorizontal",1,59,"VerticalHorizontal_11.78571_-0.1096",903,11.78571,"Incongruent","-1",0.1096,"right",0,0.868
"S053","Illusion_Session2",NA,17.3770333333333,"1536x714",1.096704,60.01,"chrome","108.0.0","Windows 10","VerticalHorizontal",1,60,"VerticalHorizontal_-3.3000_0.22500",763,-3.3,"Congruent","1",0.225,"left",0,0.489
"S053","Illusion_Session2",NA,17.3770333333333,"1536x714",1.096704,60.01,"chrome","108.0.0","Windows 10","VerticalHorizontal",1,61,"VerticalHorizontal_-28.75714_-0.2250",908,-28.75714,"Congruent","-1",0.225,"right",0,0.479
"S053","Illusion_Session2",NA,17.3770333333333,"1536x714",1.096704,60.01,"chrome","108.0.0","Windows 10","VerticalHorizontal",1,62,"VerticalHorizontal_11.78571_-0.16217",762,11.78571,"Incongruent","-1",0.16217,"left",1,0.987
"S053","Illusion_Session2",NA,17.3770333333333,"1536x714",1.096704,60.01,"chrome","108.0.0","Windows 10","VerticalHorizontal",1,63,"VerticalHorizontal_20.27143_-0.2250",884,20.27143,"Incongruent","-1",0.225,"right",0,0.799
"S053","Illusion_Session2",NA,17.3770333333333,"1536x714",1.096704,60.01,"chrome","108.0.0","Windows 10","VerticalHorizontal",1,64,"VerticalHorizontal_11.78571_0.22500",843,11.78571,"Incongruent","1",0.225,"left",0,0.558
"S053","Illusion_Session2",NA,17.3770333333333,"1536x714",1.096704,60.01,"chrome","108.0.0","Windows 10","VerticalHorizontal",2,1,"VerticalHorizontal_7.54286_0.08717",932,7.54286,"Incongruent","1",0.08717,"left",0,0.519
"S053","Illusion_Session2",NA,17.3770333333333,"1536x714",1.096704,60.01,"chrome","108.0.0","Windows 10","VerticalHorizontal",2,2,"VerticalHorizontal_-33.000_0.08717",683,-33,"Congruent","1",0.08717,"left",0,0.442
"S053","Illusion_Session2",NA,17.3770333333333,"1536x714",1.096704,60.01,"chrome","108.0.0","Windows 10","VerticalHorizontal",2,3,"VerticalHorizontal_24.51429_-0.08717",821,24.51429,"Incongruent","-1",0.08717,"left",1,0.455
"S053","Illusion_Session2",NA,17.3770333333333,"1536x714",1.096704,60.01,"chrome","108.0.0","Windows 10","VerticalHorizontal",2,4,"VerticalHorizontal_-24.51429_0.19230",668,-24.51429,"Congruent","1",0.1923,"left",0,0.403
"S053","Illusion_Session2",NA,17.3770333333333,"1536x714",1.096704,60.01,"chrome","108.0.0","Windows 10","VerticalHorizontal",2,5,"VerticalHorizontal_7.54286_0.13460",611,7.54286,"Incongruent","1",0.1346,"left",0,0.733
"S053","Illusion_Session2",NA,17.3770333333333,"1536x714",1.096704,60.01,"chrome","108.0.0","Windows 10","VerticalHorizontal",2,6,"VerticalHorizontal_33.0000_0.08717",848,33,"Incongruent","1",0.08717,"right",1,0.417
"S053","Illusion_Session2",NA,17.3770333333333,"1536x714",1.096704,60.01,"chrome","108.0.0","Windows 10","VerticalHorizontal",2,7,"VerticalHorizontal_7.54286_-0.0500",867,7.54286,"Incongruent","-1",0.05,"right",0,0.582
"S053","Illusion_Session2",NA,17.3770333333333,"1536x714",1.096704,60.01,"chrome","108.0.0","Windows 10","VerticalHorizontal",2,8,"VerticalHorizontal_-16.02857_0.19230",943,-16.02857,"Congruent","1",0.1923,"left",0,0.587
"S053","Illusion_Session2",NA,17.3770333333333,"1536x714",1.096704,60.01,"chrome","108.0.0","Windows 10","VerticalHorizontal",2,9,"VerticalHorizontal_-7.54286_0.08717",863,-7.54286,"Congruent","1",0.08717,"left",0,0.577
"S053","Illusion_Session2",NA,17.3770333333333,"1536x714",1.096704,60.01,"chrome","108.0.0","Windows 10","VerticalHorizontal",2,10,"VerticalHorizontal_-16.02857_-0.1923",631,-16.02857,"Congruent","-1",0.1923,"right",0,0.436
"S053","Illusion_Session2",NA,17.3770333333333,"1536x714",1.096704,60.01,"chrome","108.0.0","Windows 10","VerticalHorizontal",2,11,"VerticalHorizontal_-33.000_0.05000",655,-33,"Congruent","1",0.05,"left",0,0.583
"S053","Illusion_Session2",NA,17.3770333333333,"1536x714",1.096704,60.01,"chrome","108.0.0","Windows 10","VerticalHorizontal",2,12,"VerticalHorizontal_7.54286_0.19230",802,7.54286,"Incongruent","1",0.1923,"left",0,0.603
"S053","Illusion_Session2",NA,17.3770333333333,"1536x714",1.096704,60.01,"chrome","108.0.0","Windows 10","VerticalHorizontal",2,13,"VerticalHorizontal_24.51429_-0.1346",752,24.51429,"Incongruent","-1",0.1346,"left",1,0.5
"S053","Illusion_Session2",NA,17.3770333333333,"1536x714",1.096704,60.01,"chrome","108.0.0","Windows 10","VerticalHorizontal",2,14,"VerticalHorizontal_33.0000_0.13460",957,33,"Incongruent","1",0.1346,"right",1,0.829
"S053","Illusion_Session2",NA,17.3770333333333,"1536x714",1.096704,60.01,"chrome","108.0.0","Windows 10","VerticalHorizontal",2,15,"VerticalHorizontal_16.02857_-0.1923",874,16.02857,"Incongruent","-1",0.1923,"right",0,0.773
"S053","Illusion_Session2",NA,17.3770333333333,"1536x714",1.096704,60.01,"chrome","108.0.0","Windows 10","VerticalHorizontal",2,16,"VerticalHorizontal_24.51429_0.08717",644,24.51429,"Incongruent","1",0.08717,"right",1,1.004
"S053","Illusion_Session2",NA,17.3770333333333,"1536x714",1.096704,60.01,"chrome","108.0.0","Windows 10","VerticalHorizontal",2,17,"VerticalHorizontal_16.02857_0.05000",873,16.02857,"Incongruent","1",0.05,"right",1,0.664
"S053","Illusion_Session2",NA,17.3770333333333,"1536x714",1.096704,60.01,"chrome","108.0.0","Windows 10","VerticalHorizontal",2,18,"VerticalHorizontal_-24.51429_0.08717",905,-24.51429,"Congruent","1",0.08717,"left",0,0.347
"S053","Illusion_Session2",NA,17.3770333333333,"1536x714",1.096704,60.01,"chrome","108.0.0","Windows 10","VerticalHorizontal",2,19,"VerticalHorizontal_-7.54286_0.05000",979,-7.54286,"Congruent","1",0.05,"left",0,0.503
"S053","Illusion_Session2",NA,17.3770333333333,"1536x714",1.096704,60.01,"chrome","108.0.0","Windows 10","VerticalHorizontal",2,20,"VerticalHorizontal_24.51429_-0.1923",729,24.51429,"Incongruent","-1",0.1923,"right",0,1.02
"S053","Illusion_Session2",NA,17.3770333333333,"1536x714",1.096704,60.01,"chrome","108.0.0","Windows 10","VerticalHorizontal",2,21,"VerticalHorizontal_33.0000_0.05000",576,33,"Incongruent","1",0.05,"right",1,0.86
"S053","Illusion_Session2",NA,17.3770333333333,"1536x714",1.096704,60.01,"chrome","108.0.0","Windows 10","VerticalHorizontal",2,22,"VerticalHorizontal_-16.02857_-0.08717",621,-16.02857,"Congruent","-1",0.08717,"right",0,0.628
"S053","Illusion_Session2",NA,17.3770333333333,"1536x714",1.096704,60.01,"chrome","108.0.0","Windows 10","VerticalHorizontal",2,23,"VerticalHorizontal_-33.000_-0.1346",568,-33,"Congruent","-1",0.1346,"right",0,0.462
"S053","Illusion_Session2",NA,17.3770333333333,"1536x714",1.096704,60.01,"chrome","108.0.0","Windows 10","VerticalHorizontal",2,24,"VerticalHorizontal_-7.54286_-0.1923",593,-7.54286,"Congruent","-1",0.1923,"right",0,0.584
"S053","Illusion_Session2",NA,17.3770333333333,"1536x714",1.096704,60.01,"chrome","108.0.0","Windows 10","VerticalHorizontal",2,25,"VerticalHorizontal_-7.54286_0.13460",653,-7.54286,"Congruent","1",0.1346,"left",0,0.426
"S053","Illusion_Session2",NA,17.3770333333333,"1536x714",1.096704,60.01,"chrome","108.0.0","Windows 10","VerticalHorizontal",2,26,"VerticalHorizontal_-33.000_-0.1923",911,-33,"Congruent","-1",0.1923,"right",0,0.524
"S053","Illusion_Session2",NA,17.3770333333333,"1536x714",1.096704,60.01,"chrome","108.0.0","Windows 10","VerticalHorizontal",2,27,"VerticalHorizontal_16.02857_0.19230",538,16.02857,"Incongruent","1",0.1923,"left",0,0.586
"S053","Illusion_Session2",NA,17.3770333333333,"1536x714",1.096704,60.01,"chrome","108.0.0","Windows 10","VerticalHorizontal",2,28,"VerticalHorizontal_7.54286_-0.1346",502,7.54286,"Incongruent","-1",0.1346,"right",0,0.804
"S053","Illusion_Session2",NA,17.3770333333333,"1536x714",1.096704,60.01,"chrome","108.0.0","Windows 10","VerticalHorizontal",2,29,"VerticalHorizontal_-33.000_0.13460",712,-33,"Congruent","1",0.1346,"left",0,0.484
"S053","Illusion_Session2",NA,17.3770333333333,"1536x714",1.096704,60.01,"chrome","108.0.0","Windows 10","VerticalHorizontal",2,30,"VerticalHorizontal_-7.54286_-0.08717",782,-7.54286,"Congruent","-1",0.08717,"right",0,0.58
"S053","Illusion_Session2",NA,17.3770333333333,"1536x714",1.096704,60.01,"chrome","108.0.0","Windows 10","VerticalHorizontal",2,31,"VerticalHorizontal_-24.51429_0.13460",873,-24.51429,"Congruent","1",0.1346,"left",0,0.492
"S053","Illusion_Session2",NA,17.3770333333333,"1536x714",1.096704,60.01,"chrome","108.0.0","Windows 10","VerticalHorizontal",2,32,"VerticalHorizontal_24.51429_-0.0500",632,24.51429,"Incongruent","-1",0.05,"left",1,0.497
"S053","Illusion_Session2",NA,17.3770333333333,"1536x714",1.096704,60.01,"chrome","108.0.0","Windows 10","VerticalHorizontal",2,33,"VerticalHorizontal_-16.02857_-0.1346",889,-16.02857,"Congruent","-1",0.1346,"right",0,0.486
"S053","Illusion_Session2",NA,17.3770333333333,"1536x714",1.096704,60.01,"chrome","108.0.0","Windows 10","VerticalHorizontal",2,34,"VerticalHorizontal_-7.54286_-0.1346",785,-7.54286,"Congruent","-1",0.1346,"right",0,1.031
"S053","Illusion_Session2",NA,17.3770333333333,"1536x714",1.096704,60.01,"chrome","108.0.0","Windows 10","VerticalHorizontal",2,35,"VerticalHorizontal_16.02857_0.13460",914,16.02857,"Incongruent","1",0.1346,"right",1,0.512
"S053","Illusion_Session2",NA,17.3770333333333,"1536x714",1.096704,60.01,"chrome","108.0.0","Windows 10","VerticalHorizontal",2,36,"VerticalHorizontal_7.54286_-0.08717",593,7.54286,"Incongruent","-1",0.08717,"right",0,0.781
"S053","Illusion_Session2",NA,17.3770333333333,"1536x714",1.096704,60.01,"chrome","108.0.0","Windows 10","VerticalHorizontal",2,37,"VerticalHorizontal_-16.02857_0.13460",557,-16.02857,"Congruent","1",0.1346,"left",0,0.528
"S053","Illusion_Session2",NA,17.3770333333333,"1536x714",1.096704,60.01,"chrome","108.0.0","Windows 10","VerticalHorizontal",2,38,"VerticalHorizontal_33.0000_-0.0500",675,33,"Incongruent","-1",0.05,"right",0,1.155
"S053","Illusion_Session2",NA,17.3770333333333,"1536x714",1.096704,60.01,"chrome","108.0.0","Windows 10","VerticalHorizontal",2,39,"VerticalHorizontal_16.02857_0.08717",927,16.02857,"Incongruent","1",0.08717,"left",0,0.746
"S053","Illusion_Session2",NA,17.3770333333333,"1536x714",1.096704,60.01,"chrome","108.0.0","Windows 10","VerticalHorizontal",2,40,"VerticalHorizontal_-24.51429_-0.1923",551,-24.51429,"Congruent","-1",0.1923,"right",0,0.463
"S053","Illusion_Session2",NA,17.3770333333333,"1536x714",1.096704,60.01,"chrome","108.0.0","Windows 10","VerticalHorizontal",2,41,"VerticalHorizontal_-16.02857_0.08717",924,-16.02857,"Congruent","1",0.08717,"left",0,0.44
"S053","Illusion_Session2",NA,17.3770333333333,"1536x714",1.096704,60.01,"chrome","108.0.0","Windows 10","VerticalHorizontal",2,42,"VerticalHorizontal_-24.51429_-0.0500",727,-24.51429,"Congruent","-1",0.05,"right",0,0.449
"S053","Illusion_Session2",NA,17.3770333333333,"1536x714",1.096704,60.01,"chrome","108.0.0","Windows 10","VerticalHorizontal",2,43,"VerticalHorizontal_-33.000_0.19230",730,-33,"Congruent","1",0.1923,"left",0,0.44
"S053","Illusion_Session2",NA,17.3770333333333,"1536x714",1.096704,60.01,"chrome","108.0.0","Windows 10","VerticalHorizontal",2,44,"VerticalHorizontal_33.0000_-0.1346",507,33,"Incongruent","-1",0.1346,"left",1,0.5
"S053","Illusion_Session2",NA,17.3770333333333,"1536x714",1.096704,60.01,"chrome","108.0.0","Windows 10","VerticalHorizontal",2,45,"VerticalHorizontal_33.0000_0.19230",601,33,"Incongruent","1",0.1923,"right",1,0.49
"S053","Illusion_Session2",NA,17.3770333333333,"1536x714",1.096704,60.01,"chrome","108.0.0","Windows 10","VerticalHorizontal",2,46,"VerticalHorizontal_24.51429_0.13460",664,24.51429,"Incongruent","1",0.1346,"left",0,0.664
"S053","Illusion_Session2",NA,17.3770333333333,"1536x714",1.096704,60.01,"chrome","108.0.0","Windows 10","VerticalHorizontal",2,47,"VerticalHorizontal_7.54286_-0.1923",878,7.54286,"Incongruent","-1",0.1923,"right",0,0.472
"S053","Illusion_Session2",NA,17.3770333333333,"1536x714",1.096704,60.01,"chrome","108.0.0","Windows 10","VerticalHorizontal",2,48,"VerticalHorizontal_-16.02857_-0.0500",903,-16.02857,"Congruent","-1",0.05,"right",0,0.427
"S053","Illusion_Session2",NA,17.3770333333333,"1536x714",1.096704,60.01,"chrome","108.0.0","Windows 10","VerticalHorizontal",2,49,"VerticalHorizontal_7.54286_0.05000",961,7.54286,"Incongruent","1",0.05,"left",0,0.54
"S053","Illusion_Session2",NA,17.3770333333333,"1536x714",1.096704,60.01,"chrome","108.0.0","Windows 10","VerticalHorizontal",2,50,"VerticalHorizontal_-7.54286_0.19230",572,-7.54286,"Congruent","1",0.1923,"left",0,0.555
"S053","Illusion_Session2",NA,17.3770333333333,"1536x714",1.096704,60.01,"chrome","108.0.0","Windows 10","VerticalHorizontal",2,51,"VerticalHorizontal_24.51429_0.19230",533,24.51429,"Incongruent","1",0.1923,"right",1,0.529
"S053","Illusion_Session2",NA,17.3770333333333,"1536x714",1.096704,60.01,"chrome","108.0.0","Windows 10","VerticalHorizontal",2,52,"VerticalHorizontal_-33.000_-0.0500",989,-33,"Congruent","-1",0.05,"right",0,0.475
"S053","Illusion_Session2",NA,17.3770333333333,"1536x714",1.096704,60.01,"chrome","108.0.0","Windows 10","VerticalHorizontal",2,53,"VerticalHorizontal_-7.54286_-0.0500",905,-7.54286,"Congruent","-1",0.05,"right",0,1.162
"S053","Illusion_Session2",NA,17.3770333333333,"1536x714",1.096704,60.01,"chrome","108.0.0","Windows 10","VerticalHorizontal",2,54,"VerticalHorizontal_-24.51429_-0.1346",884,-24.51429,"Congruent","-1",0.1346,"right",0,0.512
"S053","Illusion_Session2",NA,17.3770333333333,"1536x714",1.096704,60.01,"chrome","108.0.0","Windows 10","VerticalHorizontal",2,55,"VerticalHorizontal_-33.000_-0.08717",995,-33,"Congruent","-1",0.08717,"right",0,0.674
"S053","Illusion_Session2",NA,17.3770333333333,"1536x714",1.096704,60.01,"chrome","108.0.0","Windows 10","VerticalHorizontal",2,56,"VerticalHorizontal_-16.02857_0.05000",670,-16.02857,"Congruent","1",0.05,"left",0,0.77
"S053","Illusion_Session2",NA,17.3770333333333,"1536x714",1.096704,60.01,"chrome","108.0.0","Windows 10","VerticalHorizontal",2,57,"VerticalHorizontal_33.0000_-0.1923",688,33,"Incongruent","-1",0.1923,"left",1,0.554
"S053","Illusion_Session2",NA,17.3770333333333,"1536x714",1.096704,60.01,"chrome","108.0.0","Windows 10","VerticalHorizontal",2,58,"VerticalHorizontal_33.0000_-0.08717",817,33,"Incongruent","-1",0.08717,"left",1,0.549
"S053","Illusion_Session2",NA,17.3770333333333,"1536x714",1.096704,60.01,"chrome","108.0.0","Windows 10","VerticalHorizontal",2,59,"VerticalHorizontal_-24.51429_0.05000",554,-24.51429,"Congruent","1",0.05,"left",0,0.597
"S053","Illusion_Session2",NA,17.3770333333333,"1536x714",1.096704,60.01,"chrome","108.0.0","Windows 10","VerticalHorizontal",2,60,"VerticalHorizontal_24.51429_0.05000",999,24.51429,"Incongruent","1",0.05,"left",0,1.202
"S053","Illusion_Session2",NA,17.3770333333333,"1536x714",1.096704,60.01,"chrome","108.0.0","Windows 10","VerticalHorizontal",2,61,"VerticalHorizontal_-24.51429_-0.08717",558,-24.51429,"Congruent","-1",0.08717,"right",0,0.452
"S053","Illusion_Session2",NA,17.3770333333333,"1536x714",1.096704,60.01,"chrome","108.0.0","Windows 10","VerticalHorizontal",2,62,"VerticalHorizontal_16.02857_-0.0500",653,16.02857,"Incongruent","-1",0.05,"right",0,1.068
"S053","Illusion_Session2",NA,17.3770333333333,"1536x714",1.096704,60.01,"chrome","108.0.0","Windows 10","VerticalHorizontal",2,63,"VerticalHorizontal_16.02857_-0.1346",606,16.02857,"Incongruent","-1",0.1346,"left",1,0.768
"S053","Illusion_Session2",NA,17.3770333333333,"1536x714",1.096704,60.01,"chrome","108.0.0","Windows 10","VerticalHorizontal",2,64,"VerticalHorizontal_16.02857_-0.08717",783,16.02857,"Incongruent","-1",0.08717,"left",1,0.584
"S053","Illusion_Session2",NA,17.3770333333333,"1536x714",1.096704,60.01,"chrome","108.0.0","Windows 10","Ebbinghaus",2,1,"Ebbinghaus_-0.74286_-0.24643",621,-0.74286,"Congruent","-1",0.24643,"right",0,0.597
"S053","Illusion_Session2",NA,17.3770333333333,"1536x714",1.096704,60.01,"chrome","108.0.0","Windows 10","Ebbinghaus",2,2,"Ebbinghaus_-0.22857_0.09000",859,-0.22857,"Congruent","1",0.09,"left",0,0.716
"S053","Illusion_Session2",NA,17.3770333333333,"1536x714",1.096704,60.01,"chrome","108.0.0","Windows 10","Ebbinghaus",2,3,"Ebbinghaus_1.00000_0.18571",809,1,"Incongruent","1",0.18571,"left",0,0.455
"S053","Illusion_Session2",NA,17.3770333333333,"1536x714",1.096704,60.01,"chrome","108.0.0","Windows 10","Ebbinghaus",2,4,"Ebbinghaus_-0.22857_0.13357",861,-0.22857,"Congruent","1",0.13357,"left",0,0.727
"S053","Illusion_Session2",NA,17.3770333333333,"1536x714",1.096704,60.01,"chrome","108.0.0","Windows 10","Ebbinghaus",2,5,"Ebbinghaus_0.22857_0.18571",749,0.22857,"Incongruent","1",0.18571,"left",0,0.61
"S053","Illusion_Session2",NA,17.3770333333333,"1536x714",1.096704,60.01,"chrome","108.0.0","Windows 10","Ebbinghaus",2,6,"Ebbinghaus_0.74286_-0.24643",945,0.74286,"Incongruent","-1",0.24643,"right",0,0.452
"S053","Illusion_Session2",NA,17.3770333333333,"1536x714",1.096704,60.01,"chrome","108.0.0","Windows 10","Ebbinghaus",2,7,"Ebbinghaus_1.00000_0.13357",927,1,"Incongruent","1",0.13357,"left",0,0.662
"S053","Illusion_Session2",NA,17.3770333333333,"1536x714",1.096704,60.01,"chrome","108.0.0","Windows 10","Ebbinghaus",2,8,"Ebbinghaus_0.22857_0.24643",678,0.22857,"Incongruent","1",0.24643,"left",0,0.541
"S053","Illusion_Session2",NA,17.3770333333333,"1536x714",1.096704,60.01,"chrome","108.0.0","Windows 10","Ebbinghaus",2,9,"Ebbinghaus_-0.22857_0.18571",805,-0.22857,"Congruent","1",0.18571,"left",0,0.582
"S053","Illusion_Session2",NA,17.3770333333333,"1536x714",1.096704,60.01,"chrome","108.0.0","Windows 10","Ebbinghaus",2,10,"Ebbinghaus_0.74286_0.18571",941,0.74286,"Incongruent","1",0.18571,"left",0,0.467
"S053","Illusion_Session2",NA,17.3770333333333,"1536x714",1.096704,60.01,"chrome","108.0.0","Windows 10","Ebbinghaus",2,11,"Ebbinghaus_-1.0000_-0.0900",832,-1,"Congruent","-1",0.09,"right",0,0.501
"S053","Illusion_Session2",NA,17.3770333333333,"1536x714",1.096704,60.01,"chrome","108.0.0","Windows 10","Ebbinghaus",2,12,"Ebbinghaus_-1.0000_0.13357",649,-1,"Congruent","1",0.13357,"left",0,0.922
"S053","Illusion_Session2",NA,17.3770333333333,"1536x714",1.096704,60.01,"chrome","108.0.0","Windows 10","Ebbinghaus",2,13,"Ebbinghaus_-0.48571_0.09000",662,-0.48571,"Congruent","1",0.09,"left",0,0.69
"S053","Illusion_Session2",NA,17.3770333333333,"1536x714",1.096704,60.01,"chrome","108.0.0","Windows 10","Ebbinghaus",2,14,"Ebbinghaus_-0.22857_-0.24643",523,-0.22857,"Congruent","-1",0.24643,"right",0,0.583
"S053","Illusion_Session2",NA,17.3770333333333,"1536x714",1.096704,60.01,"chrome","108.0.0","Windows 10","Ebbinghaus",2,15,"Ebbinghaus_0.74286_0.24643",859,0.74286,"Incongruent","1",0.24643,"left",0,0.537
"S053","Illusion_Session2",NA,17.3770333333333,"1536x714",1.096704,60.01,"chrome","108.0.0","Windows 10","Ebbinghaus",2,16,"Ebbinghaus_-1.0000_0.18571",805,-1,"Congruent","1",0.18571,"left",0,0.633
"S053","Illusion_Session2",NA,17.3770333333333,"1536x714",1.096704,60.01,"chrome","108.0.0","Windows 10","Ebbinghaus",2,17,"Ebbinghaus_-0.22857_-0.0900",564,-0.22857,"Congruent","-1",0.09,"right",0,0.812
"S053","Illusion_Session2",NA,17.3770333333333,"1536x714",1.096704,60.01,"chrome","108.0.0","Windows 10","Ebbinghaus",2,18,"Ebbinghaus_-0.74286_-0.0900",949,-0.74286,"Congruent","-1",0.09,"left",1,0.46
"S053","Illusion_Session2",NA,17.3770333333333,"1536x714",1.096704,60.01,"chrome","108.0.0","Windows 10","Ebbinghaus",2,19,"Ebbinghaus_-0.48571_-0.18571",629,-0.48571,"Congruent","-1",0.18571,"right",0,0.532
"S053","Illusion_Session2",NA,17.3770333333333,"1536x714",1.096704,60.01,"chrome","108.0.0","Windows 10","Ebbinghaus",2,20,"Ebbinghaus_-0.74286_0.13357",735,-0.74286,"Congruent","1",0.13357,"left",0,0.73
"S053","Illusion_Session2",NA,17.3770333333333,"1536x714",1.096704,60.01,"chrome","108.0.0","Windows 10","Ebbinghaus",2,21,"Ebbinghaus_1.00000_-0.18571",534,1,"Incongruent","-1",0.18571,"right",0,0.504
"S053","Illusion_Session2",NA,17.3770333333333,"1536x714",1.096704,60.01,"chrome","108.0.0","Windows 10","Ebbinghaus",2,22,"Ebbinghaus_0.74286_-0.0900",893,0.74286,"Incongruent","-1",0.09,"right",0,0.578
"S053","Illusion_Session2",NA,17.3770333333333,"1536x714",1.096704,60.01,"chrome","108.0.0","Windows 10","Ebbinghaus",2,23,"Ebbinghaus_-0.48571_-0.13357",843,-0.48571,"Congruent","-1",0.13357,"left",1,0.514
"S053","Illusion_Session2",NA,17.3770333333333,"1536x714",1.096704,60.01,"chrome","108.0.0","Windows 10","Ebbinghaus",2,24,"Ebbinghaus_-0.74286_0.24643",582,-0.74286,"Congruent","1",0.24643,"left",0,0.591
"S053","Illusion_Session2",NA,17.3770333333333,"1536x714",1.096704,60.01,"chrome","108.0.0","Windows 10","Ebbinghaus",2,25,"Ebbinghaus_0.74286_0.13357",895,0.74286,"Incongruent","1",0.13357,"left",0,0.521
"S053","Illusion_Session2",NA,17.3770333333333,"1536x714",1.096704,60.01,"chrome","108.0.0","Windows 10","Ebbinghaus",2,26,"Ebbinghaus_0.48571_-0.18571",939,0.48571,"Incongruent","-1",0.18571,"right",0,0.504
"S053","Illusion_Session2",NA,17.3770333333333,"1536x714",1.096704,60.01,"chrome","108.0.0","Windows 10","Ebbinghaus",2,27,"Ebbinghaus_0.22857_-0.18571",544,0.22857,"Incongruent","-1",0.18571,"left",1,1.032
"S053","Illusion_Session2",NA,17.3770333333333,"1536x714",1.096704,60.01,"chrome","108.0.0","Windows 10","Ebbinghaus",2,28,"Ebbinghaus_1.00000_-0.24643",980,1,"Incongruent","-1",0.24643,"left",1,0.733
"S053","Illusion_Session2",NA,17.3770333333333,"1536x714",1.096704,60.01,"chrome","108.0.0","Windows 10","Ebbinghaus",2,29,"Ebbinghaus_1.00000_-0.13357",941,1,"Incongruent","-1",0.13357,"right",0,0.852
"S053","Illusion_Session2",NA,17.3770333333333,"1536x714",1.096704,60.01,"chrome","108.0.0","Windows 10","Ebbinghaus",2,30,"Ebbinghaus_-0.74286_0.09000",737,-0.74286,"Congruent","1",0.09,"left",0,0.69
"S053","Illusion_Session2",NA,17.3770333333333,"1536x714",1.096704,60.01,"chrome","108.0.0","Windows 10","Ebbinghaus",2,31,"Ebbinghaus_0.48571_0.18571",718,0.48571,"Incongruent","1",0.18571,"left",0,0.506
"S053","Illusion_Session2",NA,17.3770333333333,"1536x714",1.096704,60.01,"chrome","108.0.0","Windows 10","Ebbinghaus",2,32,"Ebbinghaus_-0.48571_-0.24643",745,-0.48571,"Congruent","-1",0.24643,"right",0,0.554
"S053","Illusion_Session2",NA,17.3770333333333,"1536x714",1.096704,60.01,"chrome","108.0.0","Windows 10","Ebbinghaus",2,33,"Ebbinghaus_-1.0000_-0.18571",732,-1,"Congruent","-1",0.18571,"right",0,0.505
"S053","Illusion_Session2",NA,17.3770333333333,"1536x714",1.096704,60.01,"chrome","108.0.0","Windows 10","Ebbinghaus",2,34,"Ebbinghaus_0.22857_0.09000",526,0.22857,"Incongruent","1",0.09,"right",1,1.186
"S053","Illusion_Session2",NA,17.3770333333333,"1536x714",1.096704,60.01,"chrome","108.0.0","Windows 10","Ebbinghaus",2,35,"Ebbinghaus_-0.22857_-0.18571",613,-0.22857,"Congruent","-1",0.18571,"right",0,0.639
"S053","Illusion_Session2",NA,17.3770333333333,"1536x714",1.096704,60.01,"chrome","108.0.0","Windows 10","Ebbinghaus",2,36,"Ebbinghaus_-1.0000_0.09000",503,-1,"Congruent","1",0.09,"left",0,0.858
"S053","Illusion_Session2",NA,17.3770333333333,"1536x714",1.096704,60.01,"chrome","108.0.0","Windows 10","Ebbinghaus",2,37,"Ebbinghaus_0.48571_0.09000",912,0.48571,"Incongruent","1",0.09,"left",0,0.615
"S053","Illusion_Session2",NA,17.3770333333333,"1536x714",1.096704,60.01,"chrome","108.0.0","Windows 10","Ebbinghaus",2,38,"Ebbinghaus_0.22857_-0.0900",557,0.22857,"Incongruent","-1",0.09,"right",0,0.571
"S053","Illusion_Session2",NA,17.3770333333333,"1536x714",1.096704,60.01,"chrome","108.0.0","Windows 10","Ebbinghaus",2,39,"Ebbinghaus_-0.48571_0.13357",941,-0.48571,"Congruent","1",0.13357,"left",0,0.571
"S053","Illusion_Session2",NA,17.3770333333333,"1536x714",1.096704,60.01,"chrome","108.0.0","Windows 10","Ebbinghaus",2,40,"Ebbinghaus_0.74286_-0.13357",897,0.74286,"Incongruent","-1",0.13357,"right",0,0.855
"S053","Illusion_Session2",NA,17.3770333333333,"1536x714",1.096704,60.01,"chrome","108.0.0","Windows 10","Ebbinghaus",2,41,"Ebbinghaus_-1.0000_0.24643",774,-1,"Congruent","1",0.24643,"left",0,0.518
"S053","Illusion_Session2",NA,17.3770333333333,"1536x714",1.096704,60.01,"chrome","108.0.0","Windows 10","Ebbinghaus",2,42,"Ebbinghaus_0.74286_0.09000",977,0.74286,"Incongruent","1",0.09,"left",0,1.013
"S053","Illusion_Session2",NA,17.3770333333333,"1536x714",1.096704,60.01,"chrome","108.0.0","Windows 10","Ebbinghaus",2,43,"Ebbinghaus_0.22857_0.13357",774,0.22857,"Incongruent","1",0.13357,"left",0,0.666
"S053","Illusion_Session2",NA,17.3770333333333,"1536x714",1.096704,60.01,"chrome","108.0.0","Windows 10","Ebbinghaus",2,44,"Ebbinghaus_-1.0000_-0.13357",665,-1,"Congruent","-1",0.13357,"right",0,0.532
"S053","Illusion_Session2",NA,17.3770333333333,"1536x714",1.096704,60.01,"chrome","108.0.0","Windows 10","Ebbinghaus",2,45,"Ebbinghaus_-0.74286_0.18571",531,-0.74286,"Congruent","1",0.18571,"left",0,0.552
"S053","Illusion_Session2",NA,17.3770333333333,"1536x714",1.096704,60.01,"chrome","108.0.0","Windows 10","Ebbinghaus",2,46,"Ebbinghaus_0.74286_-0.18571",620,0.74286,"Incongruent","-1",0.18571,"right",0,0.482
"S053","Illusion_Session2",NA,17.3770333333333,"1536x714",1.096704,60.01,"chrome","108.0.0","Windows 10","Ebbinghaus",2,47,"Ebbinghaus_-0.48571_0.18571",878,-0.48571,"Congruent","1",0.18571,"left",0,0.684
"S053","Illusion_Session2",NA,17.3770333333333,"1536x714",1.096704,60.01,"chrome","108.0.0","Windows 10","Ebbinghaus",2,48,"Ebbinghaus_0.48571_-0.24643",564,0.48571,"Incongruent","-1",0.24643,"right",0,0.513
"S053","Illusion_Session2",NA,17.3770333333333,"1536x714",1.096704,60.01,"chrome","108.0.0","Windows 10","Ebbinghaus",2,49,"Ebbinghaus_0.48571_-0.13357",871,0.48571,"Incongruent","-1",0.13357,"right",0,0.814
"S053","Illusion_Session2",NA,17.3770333333333,"1536x714",1.096704,60.01,"chrome","108.0.0","Windows 10","Ebbinghaus",2,50,"Ebbinghaus_-0.48571_-0.0900",872,-0.48571,"Congruent","-1",0.09,"left",1,0.68
"S053","Illusion_Session2",NA,17.3770333333333,"1536x714",1.096704,60.01,"chrome","108.0.0","Windows 10","Ebbinghaus",2,51,"Ebbinghaus_0.48571_-0.0900",847,0.48571,"Incongruent","-1",0.09,"left",1,0.935
"S053","Illusion_Session2",NA,17.3770333333333,"1536x714",1.096704,60.01,"chrome","108.0.0","Windows 10","Ebbinghaus",2,52,"Ebbinghaus_1.00000_0.09000",804,1,"Incongruent","1",0.09,"left",0,0.633
"S053","Illusion_Session2",NA,17.3770333333333,"1536x714",1.096704,60.01,"chrome","108.0.0","Windows 10","Ebbinghaus",2,53,"Ebbinghaus_-0.48571_0.24643",748,-0.48571,"Congruent","1",0.24643,"left",0,0.555
"S053","Illusion_Session2",NA,17.3770333333333,"1536x714",1.096704,60.01,"chrome","108.0.0","Windows 10","Ebbinghaus",2,54,"Ebbinghaus_0.48571_0.13357",790,0.48571,"Incongruent","1",0.13357,"left",0,0.669
"S053","Illusion_Session2",NA,17.3770333333333,"1536x714",1.096704,60.01,"chrome","108.0.0","Windows 10","Ebbinghaus",2,55,"Ebbinghaus_0.48571_0.24643",867,0.48571,"Incongruent","1",0.24643,"left",0,1.048
"S053","Illusion_Session2",NA,17.3770333333333,"1536x714",1.096704,60.01,"chrome","108.0.0","Windows 10","Ebbinghaus",2,56,"Ebbinghaus_-0.22857_0.24643",912,-0.22857,"Congruent","1",0.24643,"left",0,0.568
"S053","Illusion_Session2",NA,17.3770333333333,"1536x714",1.096704,60.01,"chrome","108.0.0","Windows 10","Ebbinghaus",2,57,"Ebbinghaus_0.22857_-0.24643",836,0.22857,"Incongruent","-1",0.24643,"right",0,0.508
"S053","Illusion_Session2",NA,17.3770333333333,"1536x714",1.096704,60.01,"chrome","108.0.0","Windows 10","Ebbinghaus",2,58,"Ebbinghaus_-0.22857_-0.13357",552,-0.22857,"Congruent","-1",0.13357,"right",0,0.676
"S053","Illusion_Session2",NA,17.3770333333333,"1536x714",1.096704,60.01,"chrome","108.0.0","Windows 10","Ebbinghaus",2,59,"Ebbinghaus_1.00000_-0.0900",505,1,"Incongruent","-1",0.09,"left",1,0.791
"S053","Illusion_Session2",NA,17.3770333333333,"1536x714",1.096704,60.01,"chrome","108.0.0","Windows 10","Ebbinghaus",2,60,"Ebbinghaus_1.00000_0.24643",602,1,"Incongruent","1",0.24643,"left",0,0.743
"S053","Illusion_Session2",NA,17.3770333333333,"1536x714",1.096704,60.01,"chrome","108.0.0","Windows 10","Ebbinghaus",2,61,"Ebbinghaus_0.22857_-0.13357",557,0.22857,"Incongruent","-1",0.13357,"right",0,0.615
"S053","Illusion_Session2",NA,17.3770333333333,"1536x714",1.096704,60.01,"chrome","108.0.0","Windows 10","Ebbinghaus",2,62,"Ebbinghaus_-1.0000_-0.24643",566,-1,"Congruent","-1",0.24643,"right",0,0.588
"S053","Illusion_Session2",NA,17.3770333333333,"1536x714",1.096704,60.01,"chrome","108.0.0","Windows 10","Ebbinghaus",2,63,"Ebbinghaus_-0.74286_-0.18571",545,-0.74286,"Congruent","-1",0.18571,"right",0,0.9
"S053","Illusion_Session2",NA,17.3770333333333,"1536x714",1.096704,60.01,"chrome","108.0.0","Windows 10","Ebbinghaus",2,64,"Ebbinghaus_-0.74286_-0.13357",874,-0.74286,"Congruent","-1",0.13357,"right",0,0.584
"S053","Illusion_Session2",NA,17.3770333333333,"1536x714",1.096704,60.01,"chrome","108.0.0","Windows 10","MullerLyer",2,1,"MullerLyer_23.0000_0.18826",523,23,"Incongruent","1",0.18826,"down",1,0.521
"S053","Illusion_Session2",NA,17.3770333333333,"1536x714",1.096704,60.01,"chrome","108.0.0","Windows 10","MullerLyer",2,2,"MullerLyer_11.17143_-0.0500",774,11.17143,"Incongruent","-1",0.05,"up",1,0.533
"S053","Illusion_Session2",NA,17.3770333333333,"1536x714",1.096704,60.01,"chrome","108.0.0","Windows 10","MullerLyer",2,3,"MullerLyer_17.08571_0.05000",912,17.08571,"Incongruent","1",0.05,"down",1,0.521
"S053","Illusion_Session2",NA,17.3770333333333,"1536x714",1.096704,60.01,"chrome","108.0.0","Windows 10","MullerLyer",2,4,"MullerLyer_-23.000_-0.10808",722,-23,"Congruent","-1",0.10808,"down",0,0.389
"S053","Illusion_Session2",NA,17.3770333333333,"1536x714",1.096704,60.01,"chrome","108.0.0","Windows 10","MullerLyer",2,5,"MullerLyer_-17.08571_-0.18826",647,-17.08571,"Congruent","-1",0.18826,"down",0,0.42
"S053","Illusion_Session2",NA,17.3770333333333,"1536x714",1.096704,60.01,"chrome","108.0.0","Windows 10","MullerLyer",2,6,"MullerLyer_17.08571_-0.10808",879,17.08571,"Incongruent","-1",0.10808,"up",1,0.579
"S053","Illusion_Session2",NA,17.3770333333333,"1536x714",1.096704,60.01,"chrome","108.0.0","Windows 10","MullerLyer",2,7,"MullerLyer_-11.17143_0.29056",760,-11.17143,"Congruent","1",0.29056,"up",0,0.458
"S053","Illusion_Session2",NA,17.3770333333333,"1536x714",1.096704,60.01,"chrome","108.0.0","Windows 10","MullerLyer",2,8,"MullerLyer_17.08571_-0.18826",738,17.08571,"Incongruent","-1",0.18826,"down",0,0.569
"S053","Illusion_Session2",NA,17.3770333333333,"1536x714",1.096704,60.01,"chrome","108.0.0","Windows 10","MullerLyer",2,9,"MullerLyer_23.0000_-0.10808",932,23,"Incongruent","-1",0.10808,"up",1,0.483
"S053","Illusion_Session2",NA,17.3770333333333,"1536x714",1.096704,60.01,"chrome","108.0.0","Windows 10","MullerLyer",2,10,"MullerLyer_17.08571_-0.29056",776,17.08571,"Incongruent","-1",0.29056,"down",0,0.551
"S053","Illusion_Session2",NA,17.3770333333333,"1536x714",1.096704,60.01,"chrome","108.0.0","Windows 10","MullerLyer",2,11,"MullerLyer_23.0000_-0.0500",886,23,"Incongruent","-1",0.05,"up",1,0.454
"S053","Illusion_Session2",NA,17.3770333333333,"1536x714",1.096704,60.01,"chrome","108.0.0","Windows 10","MullerLyer",2,12,"MullerLyer_-5.25714_0.18826",961,-5.25714,"Congruent","1",0.18826,"up",0,0.424
"S053","Illusion_Session2",NA,17.3770333333333,"1536x714",1.096704,60.01,"chrome","108.0.0","Windows 10","MullerLyer",2,13,"MullerLyer_-17.08571_0.10808",541,-17.08571,"Congruent","1",0.10808,"up",0,0.475
"S053","Illusion_Session2",NA,17.3770333333333,"1536x714",1.096704,60.01,"chrome","108.0.0","Windows 10","MullerLyer",2,14,"MullerLyer_5.25714_-0.0500",956,5.25714,"Incongruent","-1",0.05,"down",0,0.663
"S053","Illusion_Session2",NA,17.3770333333333,"1536x714",1.096704,60.01,"chrome","108.0.0","Windows 10","MullerLyer",2,15,"MullerLyer_11.17143_0.18826",865,11.17143,"Incongruent","1",0.18826,"down",1,0.487
"S053","Illusion_Session2",NA,17.3770333333333,"1536x714",1.096704,60.01,"chrome","108.0.0","Windows 10","MullerLyer",2,16,"MullerLyer_11.17143_-0.10808",562,11.17143,"Incongruent","-1",0.10808,"up",1,0.445
"S053","Illusion_Session2",NA,17.3770333333333,"1536x714",1.096704,60.01,"chrome","108.0.0","Windows 10","MullerLyer",2,17,"MullerLyer_5.25714_0.05000",877,5.25714,"Incongruent","1",0.05,"down",1,0.469
"S053","Illusion_Session2",NA,17.3770333333333,"1536x714",1.096704,60.01,"chrome","108.0.0","Windows 10","MullerLyer",2,18,"MullerLyer_-23.000_0.10808",679,-23,"Congruent","1",0.10808,"up",0,0.511
"S053","Illusion_Session2",NA,17.3770333333333,"1536x714",1.096704,60.01,"chrome","108.0.0","Windows 10","MullerLyer",2,19,"MullerLyer_-23.000_0.05000",612,-23,"Congruent","1",0.05,"up",0,0.526
"S053","Illusion_Session2",NA,17.3770333333333,"1536x714",1.096704,60.01,"chrome","108.0.0","Windows 10","MullerLyer",2,20,"MullerLyer_11.17143_0.29056",641,11.17143,"Incongruent","1",0.29056,"up",0,0.694
"S053","Illusion_Session2",NA,17.3770333333333,"1536x714",1.096704,60.01,"chrome","108.0.0","Windows 10","MullerLyer",2,21,"MullerLyer_23.0000_0.10808",853,23,"Incongruent","1",0.10808,"down",1,0.477
"S053","Illusion_Session2",NA,17.3770333333333,"1536x714",1.096704,60.01,"chrome","108.0.0","Windows 10","MullerLyer",2,22,"MullerLyer_23.0000_0.29056",640,23,"Incongruent","1",0.29056,"down",1,0.482
"S053","Illusion_Session2",NA,17.3770333333333,"1536x714",1.096704,60.01,"chrome","108.0.0","Windows 10","MullerLyer",2,23,"MullerLyer_17.08571_0.29056",556,17.08571,"Incongruent","1",0.29056,"up",0,0.665
"S053","Illusion_Session2",NA,17.3770333333333,"1536x714",1.096704,60.01,"chrome","108.0.0","Windows 10","MullerLyer",2,24,"MullerLyer_17.08571_-0.0500",507,17.08571,"Incongruent","-1",0.05,"up",1,0.495
"S053","Illusion_Session2",NA,17.3770333333333,"1536x714",1.096704,60.01,"chrome","108.0.0","Windows 10","MullerLyer",2,25,"MullerLyer_-17.08571_0.18826",890,-17.08571,"Congruent","1",0.18826,"up",0,0.421
"S053","Illusion_Session2",NA,17.3770333333333,"1536x714",1.096704,60.01,"chrome","108.0.0","Windows 10","MullerLyer",2,26,"MullerLyer_-23.000_-0.18826",587,-23,"Congruent","-1",0.18826,"down",0,0.44
"S053","Illusion_Session2",NA,17.3770333333333,"1536x714",1.096704,60.01,"chrome","108.0.0","Windows 10","MullerLyer",2,27,"MullerLyer_-11.17143_-0.18826",503,-11.17143,"Congruent","-1",0.18826,"down",0,0.736
"S053","Illusion_Session2",NA,17.3770333333333,"1536x714",1.096704,60.01,"chrome","108.0.0","Windows 10","MullerLyer",2,28,"MullerLyer_-11.17143_-0.10808",759,-11.17143,"Congruent","-1",0.10808,"down",0,0.46
"S053","Illusion_Session2",NA,17.3770333333333,"1536x714",1.096704,60.01,"chrome","108.0.0","Windows 10","MullerLyer",2,29,"MullerLyer_11.17143_-0.29056",631,11.17143,"Incongruent","-1",0.29056,"down",0,0.588
"S053","Illusion_Session2",NA,17.3770333333333,"1536x714",1.096704,60.01,"chrome","108.0.0","Windows 10","MullerLyer",2,30,"MullerLyer_-23.000_-0.29056",613,-23,"Congruent","-1",0.29056,"down",0,0.462
"S053","Illusion_Session2",NA,17.3770333333333,"1536x714",1.096704,60.01,"chrome","108.0.0","Windows 10","MullerLyer",2,31,"MullerLyer_-11.17143_-0.0500",912,-11.17143,"Congruent","-1",0.05,"down",0,0.555
"S053","Illusion_Session2",NA,17.3770333333333,"1536x714",1.096704,60.01,"chrome","108.0.0","Windows 10","MullerLyer",2,32,"MullerLyer_5.25714_0.18826",614,5.25714,"Incongruent","1",0.18826,"down",1,0.545
"S053","Illusion_Session2",NA,17.3770333333333,"1536x714",1.096704,60.01,"chrome","108.0.0","Windows 10","MullerLyer",2,33,"MullerLyer_-11.17143_0.05000",863,-11.17143,"Congruent","1",0.05,"up",0,0.489
"S053","Illusion_Session2",NA,17.3770333333333,"1536x714",1.096704,60.01,"chrome","108.0.0","Windows 10","MullerLyer",2,34,"MullerLyer_-5.25714_0.10808",821,-5.25714,"Congruent","1",0.10808,"up",0,0.47
"S053","Illusion_Session2",NA,17.3770333333333,"1536x714",1.096704,60.01,"chrome","108.0.0","Windows 10","MullerLyer",2,35,"MullerLyer_17.08571_0.10808",984,17.08571,"Incongruent","1",0.10808,"up",0,0.44
"S053","Illusion_Session2",NA,17.3770333333333,"1536x714",1.096704,60.01,"chrome","108.0.0","Windows 10","MullerLyer",2,36,"MullerLyer_-17.08571_-0.29056",677,-17.08571,"Congruent","-1",0.29056,"down",0,0.394
"S053","Illusion_Session2",NA,17.3770333333333,"1536x714",1.096704,60.01,"chrome","108.0.0","Windows 10","MullerLyer",2,37,"MullerLyer_23.0000_-0.18826",542,23,"Incongruent","-1",0.18826,"down",0,0.655
"S053","Illusion_Session2",NA,17.3770333333333,"1536x714",1.096704,60.01,"chrome","108.0.0","Windows 10","MullerLyer",2,38,"MullerLyer_-23.000_-0.0500",909,-23,"Congruent","-1",0.05,"down",0,0.481
"S053","Illusion_Session2",NA,17.3770333333333,"1536x714",1.096704,60.01,"chrome","108.0.0","Windows 10","MullerLyer",2,39,"MullerLyer_11.17143_0.05000",744,11.17143,"Incongruent","1",0.05,"down",1,0.469
"S053","Illusion_Session2",NA,17.3770333333333,"1536x714",1.096704,60.01,"chrome","108.0.0","Windows 10","MullerLyer",2,40,"MullerLyer_5.25714_-0.18826",582,5.25714,"Incongruent","-1",0.18826,"down",0,0.47
"S053","Illusion_Session2",NA,17.3770333333333,"1536x714",1.096704,60.01,"chrome","108.0.0","Windows 10","MullerLyer",2,41,"MullerLyer_-17.08571_-0.10808",813,-17.08571,"Congruent","-1",0.10808,"up",1,0.493
"S053","Illusion_Session2",NA,17.3770333333333,"1536x714",1.096704,60.01,"chrome","108.0.0","Windows 10","MullerLyer",2,42,"MullerLyer_5.25714_-0.29056",642,5.25714,"Incongruent","-1",0.29056,"down",0,0.386
"S053","Illusion_Session2",NA,17.3770333333333,"1536x714",1.096704,60.01,"chrome","108.0.0","Windows 10","MullerLyer",2,43,"MullerLyer_5.25714_0.29056",802,5.25714,"Incongruent","1",0.29056,"up",0,0.48
"S053","Illusion_Session2",NA,17.3770333333333,"1536x714",1.096704,60.01,"chrome","108.0.0","Windows 10","MullerLyer",2,44,"MullerLyer_11.17143_0.10808",909,11.17143,"Incongruent","1",0.10808,"down",1,0.468
"S053","Illusion_Session2",NA,17.3770333333333,"1536x714",1.096704,60.01,"chrome","108.0.0","Windows 10","MullerLyer",2,45,"MullerLyer_-5.25714_-0.0500",934,-5.25714,"Congruent","-1",0.05,"down",0,0.518
"S053","Illusion_Session2",NA,17.3770333333333,"1536x714",1.096704,60.01,"chrome","108.0.0","Windows 10","MullerLyer",2,46,"MullerLyer_5.25714_-0.10808",877,5.25714,"Incongruent","-1",0.10808,"down",0,0.41
"S053","Illusion_Session2",NA,17.3770333333333,"1536x714",1.096704,60.01,"chrome","108.0.0","Windows 10","MullerLyer",2,47,"MullerLyer_-5.25714_-0.18826",746,-5.25714,"Congruent","-1",0.18826,"down",0,0.492
"S053","Illusion_Session2",NA,17.3770333333333,"1536x714",1.096704,60.01,"chrome","108.0.0","Windows 10","MullerLyer",2,48,"MullerLyer_5.25714_0.10808",835,5.25714,"Incongruent","1",0.10808,"up",0,0.623
"S053","Illusion_Session2",NA,17.3770333333333,"1536x714",1.096704,60.01,"chrome","108.0.0","Windows 10","MullerLyer",2,49,"MullerLyer_-17.08571_0.05000",885,-17.08571,"Congruent","1",0.05,"up",0,0.527
"S053","Illusion_Session2",NA,17.3770333333333,"1536x714",1.096704,60.01,"chrome","108.0.0","Windows 10","MullerLyer",2,50,"MullerLyer_-5.25714_-0.29056",928,-5.25714,"Congruent","-1",0.29056,"down",0,0.429
"S053","Illusion_Session2",NA,17.3770333333333,"1536x714",1.096704,60.01,"chrome","108.0.0","Windows 10","MullerLyer",2,51,"MullerLyer_-17.08571_0.29056",939,-17.08571,"Congruent","1",0.29056,"up",0,0.457
"S053","Illusion_Session2",NA,17.3770333333333,"1536x714",1.096704,60.01,"chrome","108.0.0","Windows 10","MullerLyer",2,52,"MullerLyer_-11.17143_0.18826",511,-11.17143,"Congruent","1",0.18826,"up",0,0.568
"S053","Illusion_Session2",NA,17.3770333333333,"1536x714",1.096704,60.01,"chrome","108.0.0","Windows 10","MullerLyer",2,53,"MullerLyer_-11.17143_0.10808",784,-11.17143,"Congruent","1",0.10808,"up",0,0.601
"S053","Illusion_Session2",NA,17.3770333333333,"1536x714",1.096704,60.01,"chrome","108.0.0","Windows 10","MullerLyer",2,54,"MullerLyer_-5.25714_0.05000",808,-5.25714,"Congruent","1",0.05,"up",0,0.484
"S053","Illusion_Session2",NA,17.3770333333333,"1536x714",1.096704,60.01,"chrome","108.0.0","Windows 10","MullerLyer",2,55,"MullerLyer_-5.25714_-0.10808",985,-5.25714,"Congruent","-1",0.10808,"down",0,0.497
"S053","Illusion_Session2",NA,17.3770333333333,"1536x714",1.096704,60.01,"chrome","108.0.0","Windows 10","MullerLyer",2,56,"MullerLyer_-5.25714_0.29056",892,-5.25714,"Congruent","1",0.29056,"up",0,0.492
"S053","Illusion_Session2",NA,17.3770333333333,"1536x714",1.096704,60.01,"chrome","108.0.0","Windows 10","MullerLyer",2,57,"MullerLyer_17.08571_0.18826",819,17.08571,"Incongruent","1",0.18826,"down",1,0.531
"S053","Illusion_Session2",NA,17.3770333333333,"1536x714",1.096704,60.01,"chrome","108.0.0","Windows 10","MullerLyer",2,58,"MullerLyer_-23.000_0.29056",543,-23,"Congruent","1",0.29056,"up",0,0.584
"S053","Illusion_Session2",NA,17.3770333333333,"1536x714",1.096704,60.01,"chrome","108.0.0","Windows 10","MullerLyer",2,59,"MullerLyer_-17.08571_-0.0500",617,-17.08571,"Congruent","-1",0.05,"down",0,0.521
"S053","Illusion_Session2",NA,17.3770333333333,"1536x714",1.096704,60.01,"chrome","108.0.0","Windows 10","MullerLyer",2,60,"MullerLyer_-23.000_0.18826",541,-23,"Congruent","1",0.18826,"up",0,0.5
"S053","Illusion_Session2",NA,17.3770333333333,"1536x714",1.096704,60.01,"chrome","108.0.0","Windows 10","MullerLyer",2,61,"MullerLyer_23.0000_0.05000",725,23,"Incongruent","1",0.05,"down",1,0.498
"S053","Illusion_Session2",NA,17.3770333333333,"1536x714",1.096704,60.01,"chrome","108.0.0","Windows 10","MullerLyer",2,62,"MullerLyer_23.0000_-0.29056",728,23,"Incongruent","-1",0.29056,"up",1,0.752
"S053","Illusion_Session2",NA,17.3770333333333,"1536x714",1.096704,60.01,"chrome","108.0.0","Windows 10","MullerLyer",2,63,"MullerLyer_-11.17143_-0.29056",556,-11.17143,"Congruent","-1",0.29056,"down",0,0.586
"S053","Illusion_Session2",NA,17.3770333333333,"1536x714",1.096704,60.01,"chrome","108.0.0","Windows 10","MullerLyer",2,64,"MullerLyer_11.17143_-0.18826",946,11.17143,"Incongruent","-1",0.18826,"up",1,0.471
"S048","Illusion_Session2",NA,15.777,"2400x1211",2.9064,60.07,"chrome","108.0.0","Windows 10","MullerLyer",1,19,"MullerLyer_-20.04286_-0.07627",517,-20.04286,"Congruent","-1",0.07627,"down",0,0.475
"S048","Illusion_Session2",NA,15.777,"2400x1211",2.9064,60.07,"chrome","108.0.0","Windows 10","MullerLyer",1,20,"MullerLyer_14.12857_-0.3500",861,14.12857,"Incongruent","-1",0.35,"down",0,0.607
"S048","Illusion_Session2",NA,15.777,"2400x1211",2.9064,60.07,"chrome","108.0.0","Windows 10","MullerLyer",1,21,"MullerLyer_14.12857_0.35000",880,14.12857,"Incongruent","1",0.35,"up",0,0.476
"S048","Illusion_Session2",NA,15.777,"2400x1211",2.9064,60.07,"chrome","108.0.0","Windows 10","MullerLyer",1,22,"MullerLyer_-8.21429_0.35000",717,-8.21429,"Congruent","1",0.35,"up",0,0.426
"S048","Illusion_Session2",NA,15.777,"2400x1211",2.9064,60.07,"chrome","108.0.0","Windows 10","MullerLyer",1,23,"MullerLyer_14.12857_0.23665",572,14.12857,"Incongruent","1",0.23665,"down",1,0.486
"S048","Illusion_Session2",NA,15.777,"2400x1211",2.9064,60.07,"chrome","108.0.0","Windows 10","MullerLyer",1,24,"MullerLyer_-14.12857_0.14541",659,-14.12857,"Congruent","1",0.14541,"up",0,0.417
"S048","Illusion_Session2",NA,15.777,"2400x1211",2.9064,60.07,"chrome","108.0.0","Windows 10","MullerLyer",1,25,"MullerLyer_-8.21429_-0.07627",572,-8.21429,"Congruent","-1",0.07627,"down",0,0.492
"S048","Illusion_Session2",NA,15.777,"2400x1211",2.9064,60.07,"chrome","108.0.0","Windows 10","MullerLyer",1,26,"MullerLyer_-8.21429_-0.23665",810,-8.21429,"Congruent","-1",0.23665,"down",0,0.39
"S048","Illusion_Session2",NA,15.777,"2400x1211",2.9064,60.07,"chrome","108.0.0","Windows 10","MullerLyer",1,27,"MullerLyer_14.12857_0.14541",542,14.12857,"Incongruent","1",0.14541,"down",1,0.429
"S048","Illusion_Session2",NA,15.777,"2400x1211",2.9064,60.07,"chrome","108.0.0","Windows 10","MullerLyer",1,28,"MullerLyer_-20.04286_-0.23665",956,-20.04286,"Congruent","-1",0.23665,"down",0,0.449
"S048","Illusion_Session2",NA,15.777,"2400x1211",2.9064,60.07,"chrome","108.0.0","Windows 10","MullerLyer",1,29,"MullerLyer_2.30000_0.14541",853,2.3,"Incongruent","1",0.14541,"up",0,0.635
"S048","Illusion_Session2",NA,15.777,"2400x1211",2.9064,60.07,"chrome","108.0.0","Windows 10","MullerLyer",1,30,"MullerLyer_14.12857_-0.23665",568,14.12857,"Incongruent","-1",0.23665,"up",1,0.787
"S048","Illusion_Session2",NA,15.777,"2400x1211",2.9064,60.07,"chrome","108.0.0","Windows 10","MullerLyer",1,31,"MullerLyer_20.04286_0.35000",508,20.04286,"Incongruent","1",0.35,"up",0,0.544
"S048","Illusion_Session2",NA,15.777,"2400x1211",2.9064,60.07,"chrome","108.0.0","Windows 10","MullerLyer",1,32,"MullerLyer_-20.04286_0.07627",932,-20.04286,"Congruent","1",0.07627,"up",0,0.467
"S048","Illusion_Session2",NA,15.777,"2400x1211",2.9064,60.07,"chrome","108.0.0","Windows 10","MullerLyer",1,33,"MullerLyer_2.30000_0.23665",520,2.3,"Incongruent","1",0.23665,"up",0,0.512
"S048","Illusion_Session2",NA,15.777,"2400x1211",2.9064,60.07,"chrome","108.0.0","Windows 10","MullerLyer",1,34,"MullerLyer_20.04286_0.23665",538,20.04286,"Incongruent","1",0.23665,"up",0,0.623
"S048","Illusion_Session2",NA,15.777,"2400x1211",2.9064,60.07,"chrome","108.0.0","Windows 10","MullerLyer",1,35,"MullerLyer_-8.21429_0.23665",778,-8.21429,"Congruent","1",0.23665,"up",0,0.424
"S048","Illusion_Session2",NA,15.777,"2400x1211",2.9064,60.07,"chrome","108.0.0","Windows 10","MullerLyer",1,36,"MullerLyer_-8.21429_0.07627",525,-8.21429,"Congruent","1",0.07627,"up",0,0.617
"S048","Illusion_Session2",NA,15.777,"2400x1211",2.9064,60.07,"chrome","108.0.0","Windows 10","MullerLyer",1,37,"MullerLyer_8.21429_0.07627",970,8.21429,"Incongruent","1",0.07627,"down",1,0.54
"S048","Illusion_Session2",NA,15.777,"2400x1211",2.9064,60.07,"chrome","108.0.0","Windows 10","MullerLyer",1,38,"MullerLyer_-14.12857_-0.07627",603,-14.12857,"Congruent","-1",0.07627,"down",0,0.502
"S048","Illusion_Session2",NA,15.777,"2400x1211",2.9064,60.07,"chrome","108.0.0","Windows 10","MullerLyer",1,39,"MullerLyer_-14.12857_0.23665",652,-14.12857,"Congruent","1",0.23665,"up",0,0.482
"S048","Illusion_Session2",NA,15.777,"2400x1211",2.9064,60.07,"chrome","108.0.0","Windows 10","MullerLyer",1,40,"MullerLyer_2.30000_-0.23665",619,2.3,"Incongruent","-1",0.23665,"down",0,0.88
"S048","Illusion_Session2",NA,15.777,"2400x1211",2.9064,60.07,"chrome","108.0.0","Windows 10","MullerLyer",1,41,"MullerLyer_-8.21429_-0.3500",860,-8.21429,"Congruent","-1",0.35,"down",0,0.432
"S048","Illusion_Session2",NA,15.777,"2400x1211",2.9064,60.07,"chrome","108.0.0","Windows 10","MullerLyer",1,42,"MullerLyer_-20.04286_0.35000",890,-20.04286,"Congruent","1",0.35,"up",0,0.441
"S048","Illusion_Session2",NA,15.777,"2400x1211",2.9064,60.07,"chrome","108.0.0","Windows 10","MullerLyer",1,43,"MullerLyer_2.30000_-0.3500",930,2.3,"Incongruent","-1",0.35,"down",0,0.462
"S048","Illusion_Session2",NA,15.777,"2400x1211",2.9064,60.07,"chrome","108.0.0","Windows 10","MullerLyer",1,44,"MullerLyer_20.04286_-0.23665",683,20.04286,"Incongruent","-1",0.23665,"down",0,0.744
"S048","Illusion_Session2",NA,15.777,"2400x1211",2.9064,60.07,"chrome","108.0.0","Windows 10","MullerLyer",1,45,"MullerLyer_-2.3000_-0.3500",906,-2.3,"Congruent","-1",0.35,"down",0,0.466
"S048","Illusion_Session2",NA,15.777,"2400x1211",2.9064,60.07,"chrome","108.0.0","Windows 10","MullerLyer",1,46,"MullerLyer_8.21429_0.35000",586,8.21429,"Incongruent","1",0.35,"up",0,0.475
"S048","Illusion_Session2",NA,15.777,"2400x1211",2.9064,60.07,"chrome","108.0.0","Windows 10","MullerLyer",1,47,"MullerLyer_-20.04286_-0.14541",683,-20.04286,"Congruent","-1",0.14541,"down",0,0.478
"S048","Illusion_Session2",NA,15.777,"2400x1211",2.9064,60.07,"chrome","108.0.0","Windows 10","MullerLyer",1,48,"MullerLyer_8.21429_-0.3500",940,8.21429,"Incongruent","-1",0.35,"down",0,0.467
"S048","Illusion_Session2",NA,15.777,"2400x1211",2.9064,60.07,"chrome","108.0.0","Windows 10","MullerLyer",1,49,"MullerLyer_8.21429_-0.14541",1000,8.21429,"Incongruent","-1",0.14541,"down",0,0.725
"S048","Illusion_Session2",NA,15.777,"2400x1211",2.9064,60.07,"chrome","108.0.0","Windows 10","MullerLyer",1,50,"MullerLyer_-14.12857_-0.23665",993,-14.12857,"Congruent","-1",0.23665,"down",0,0.42
"S048","Illusion_Session2",NA,15.777,"2400x1211",2.9064,60.07,"chrome","108.0.0","Windows 10","MullerLyer",1,51,"MullerLyer_8.21429_-0.23665",1000,8.21429,"Incongruent","-1",0.23665,"down",0,0.687
"S048","Illusion_Session2",NA,15.777,"2400x1211",2.9064,60.07,"chrome","108.0.0","Windows 10","MullerLyer",1,52,"MullerLyer_20.04286_-0.14541",954,20.04286,"Incongruent","-1",0.14541,"up",1,0.499
"S048","Illusion_Session2",NA,15.777,"2400x1211",2.9064,60.07,"chrome","108.0.0","Windows 10","MullerLyer",1,53,"MullerLyer_14.12857_0.07627",678,14.12857,"Incongruent","1",0.07627,"down",1,0.498
"S048","Illusion_Session2",NA,15.777,"2400x1211",2.9064,60.07,"chrome","108.0.0","Windows 10","MullerLyer",1,54,"MullerLyer_-14.12857_0.35000",985,-14.12857,"Congruent","1",0.35,"up",0,0.42
"S048","Illusion_Session2",NA,15.777,"2400x1211",2.9064,60.07,"chrome","108.0.0","Windows 10","MullerLyer",1,55,"MullerLyer_-14.12857_-0.14541",940,-14.12857,"Congruent","-1",0.14541,"down",0,0.384
"S048","Illusion_Session2",NA,15.777,"2400x1211",2.9064,60.07,"chrome","108.0.0","Windows 10","MullerLyer",1,56,"MullerLyer_-20.04286_0.14541",569,-20.04286,"Congruent","1",0.14541,"up",0,0.461
"S048","Illusion_Session2",NA,15.777,"2400x1211",2.9064,60.07,"chrome","108.0.0","Windows 10","MullerLyer",1,57,"MullerLyer_-8.21429_-0.14541",651,-8.21429,"Congruent","-1",0.14541,"down",0,0.427
"S048","Illusion_Session2",NA,15.777,"2400x1211",2.9064,60.07,"chrome","108.0.0","Windows 10","MullerLyer",1,58,"MullerLyer_-14.12857_-0.3500",765,-14.12857,"Congruent","-1",0.35,"down",0,0.356
"S048","Illusion_Session2",NA,15.777,"2400x1211",2.9064,60.07,"chrome","108.0.0","Windows 10","MullerLyer",1,59,"MullerLyer_2.30000_-0.14541",684,2.3,"Incongruent","-1",0.14541,"down",0,0.557
"S048","Illusion_Session2",NA,15.777,"2400x1211",2.9064,60.07,"chrome","108.0.0","Windows 10","MullerLyer",1,60,"MullerLyer_-20.04286_0.23665",915,-20.04286,"Congruent","1",0.23665,"up",0,0.383
"S048","Illusion_Session2",NA,15.777,"2400x1211",2.9064,60.07,"chrome","108.0.0","Windows 10","MullerLyer",1,61,"MullerLyer_-2.3000_-0.14541",950,-2.3,"Congruent","-1",0.14541,"down",0,0.414
"S048","Illusion_Session2",NA,15.777,"2400x1211",2.9064,60.07,"chrome","108.0.0","Windows 10","MullerLyer",1,62,"MullerLyer_-2.3000_0.35000",660,-2.3,"Congruent","1",0.35,"up",0,0.442
"S048","Illusion_Session2",NA,15.777,"2400x1211",2.9064,60.07,"chrome","108.0.0","Windows 10","MullerLyer",1,63,"MullerLyer_-2.3000_0.07627",812,-2.3,"Congruent","1",0.07627,"up",0,0.485
"S048","Illusion_Session2",NA,15.777,"2400x1211",2.9064,60.07,"chrome","108.0.0","Windows 10","MullerLyer",1,64,"MullerLyer_20.04286_-0.3500",575,20.04286,"Incongruent","-1",0.35,"up",1,0.638
"S048","Illusion_Session2",NA,15.777,"2400x1211",2.9064,60.07,"chrome","108.0.0","Windows 10","MullerLyer",1,65,"MullerLyer_-14.12857_0.07627",986,-14.12857,"Congruent","1",0.07627,"up",0,0.419
"S048","Illusion_Session2",NA,15.777,"2400x1211",2.9064,60.07,"chrome","108.0.0","Windows 10","MullerLyer",1,66,"MullerLyer_8.21429_0.14541",599,8.21429,"Incongruent","1",0.14541,"down",1,0.661
"S048","Illusion_Session2",NA,15.777,"2400x1211",2.9064,60.07,"chrome","108.0.0","Windows 10","MullerLyer",1,67,"MullerLyer_-2.3000_-0.07627",798,-2.3,"Congruent","-1",0.07627,"down",0,0.538
"S048","Illusion_Session2",NA,15.777,"2400x1211",2.9064,60.07,"chrome","108.0.0","Windows 10","MullerLyer",1,68,"MullerLyer_2.30000_0.35000",956,2.3,"Incongruent","1",0.35,"up",0,0.458
"S048","Illusion_Session2",NA,15.777,"2400x1211",2.9064,60.07,"chrome","108.0.0","Windows 10","MullerLyer",1,69,"MullerLyer_20.04286_0.14541",620,20.04286,"Incongruent","1",0.14541,"down",1,0.74
"S048","Illusion_Session2",NA,15.777,"2400x1211",2.9064,60.07,"chrome","108.0.0","Windows 10","MullerLyer",1,70,"MullerLyer_14.12857_-0.07627",795,14.12857,"Incongruent","-1",0.07627,"down",0,0.636
"S048","Illusion_Session2",NA,15.777,"2400x1211",2.9064,60.07,"chrome","108.0.0","Windows 10","MullerLyer",1,71,"MullerLyer_2.30000_0.07627",511,2.3,"Incongruent","1",0.07627,"up",0,0.735
"S048","Illusion_Session2",NA,15.777,"2400x1211",2.9064,60.07,"chrome","108.0.0","Windows 10","MullerLyer",1,72,"MullerLyer_8.21429_0.23665",651,8.21429,"Incongruent","1",0.23665,"up",0,0.513
"S048","Illusion_Session2",NA,15.777,"2400x1211",2.9064,60.07,"chrome","108.0.0","Windows 10","MullerLyer",1,73,"MullerLyer_-2.3000_-0.23665",975,-2.3,"Congruent","-1",0.23665,"down",0,0.46
"S048","Illusion_Session2",NA,15.777,"2400x1211",2.9064,60.07,"chrome","108.0.0","Windows 10","MullerLyer",1,74,"MullerLyer_20.04286_-0.07627",541,20.04286,"Incongruent","-1",0.07627,"up",1,0.448
"S048","Illusion_Session2",NA,15.777,"2400x1211",2.9064,60.07,"chrome","108.0.0","Windows 10","MullerLyer",1,75,"MullerLyer_-8.21429_0.14541",684,-8.21429,"Congruent","1",0.14541,"up",0,0.39
"S048","Illusion_Session2",NA,15.777,"2400x1211",2.9064,60.07,"chrome","108.0.0","Windows 10","MullerLyer",1,76,"MullerLyer_14.12857_-0.14541",679,14.12857,"Incongruent","-1",0.14541,"up",1,0.438
"S048","Illusion_Session2",NA,15.777,"2400x1211",2.9064,60.07,"chrome","108.0.0","Windows 10","MullerLyer",1,77,"MullerLyer_-2.3000_0.14541",846,-2.3,"Congruent","1",0.14541,"up",0,0.374
"S048","Illusion_Session2",NA,15.777,"2400x1211",2.9064,60.07,"chrome","108.0.0","Windows 10","MullerLyer",1,78,"MullerLyer_-2.3000_0.23665",613,-2.3,"Congruent","1",0.23665,"up",0,0.393
"S048","Illusion_Session2",NA,15.777,"2400x1211",2.9064,60.07,"chrome","108.0.0","Windows 10","MullerLyer",1,79,"MullerLyer_8.21429_-0.07627",573,8.21429,"Incongruent","-1",0.07627,"up",1,0.39
"S048","Illusion_Session2",NA,15.777,"2400x1211",2.9064,60.07,"chrome","108.0.0","Windows 10","MullerLyer",1,80,"MullerLyer_-20.04286_-0.3500",788,-20.04286,"Congruent","-1",0.35,"down",0,0.44
"S048","Illusion_Session2",NA,15.777,"2400x1211",2.9064,60.07,"chrome","108.0.0","Windows 10","MullerLyer",1,81,"MullerLyer_20.04286_0.07627",622,20.04286,"Incongruent","1",0.07627,"down",1,0.38
"S048","Illusion_Session2",NA,15.777,"2400x1211",2.9064,60.07,"chrome","108.0.0","Windows 10","MullerLyer",1,82,"MullerLyer_2.30000_-0.07627",750,2.3,"Incongruent","-1",0.07627,"down",0,0.563
"S048","Illusion_Session2",NA,15.777,"2400x1211",2.9064,60.07,"chrome","108.0.0","Windows 10","Ebbinghaus",1,1,"Ebbinghaus_-0.35714_0.28000",772,-0.35714,"Congruent","1",0.28,"left",0,0.533
"S048","Illusion_Session2",NA,15.777,"2400x1211",2.9064,60.07,"chrome","108.0.0","Windows 10","Ebbinghaus",1,2,"Ebbinghaus_0.35714_0.11071",502,0.35714,"Incongruent","1",0.11071,"left",0,0.427
"S048","Illusion_Session2",NA,15.777,"2400x1211",2.9064,60.07,"chrome","108.0.0","Windows 10","Ebbinghaus",1,3,"Ebbinghaus_-0.61429_-0.15857",987,-0.61429,"Congruent","-1",0.15857,"right",0,0.563
"S048","Illusion_Session2",NA,15.777,"2400x1211",2.9064,60.07,"chrome","108.0.0","Windows 10","Ebbinghaus",1,4,"Ebbinghaus_0.61429_-0.15857",533,0.61429,"Incongruent","-1",0.15857,"right",0,0.463
"S048","Illusion_Session2",NA,15.777,"2400x1211",2.9064,60.07,"chrome","108.0.0","Windows 10","Ebbinghaus",1,5,"Ebbinghaus_0.35714_0.15857",722,0.35714,"Incongruent","1",0.15857,"left",0,0.44
"S048","Illusion_Session2",NA,15.777,"2400x1211",2.9064,60.07,"chrome","108.0.0","Windows 10","Ebbinghaus",1,6,"Ebbinghaus_-0.61429_-0.2800",651,-0.61429,"Congruent","-1",0.28,"right",0,0.511
"S048","Illusion_Session2",NA,15.777,"2400x1211",2.9064,60.07,"chrome","108.0.0","Windows 10","Ebbinghaus",1,7,"Ebbinghaus_-0.87143_0.28000",501,-0.87143,"Congruent","1",0.28,"left",0,0.46
"S048","Illusion_Session2",NA,15.777,"2400x1211",2.9064,60.07,"chrome","108.0.0","Windows 10","Ebbinghaus",1,8,"Ebbinghaus_-0.1000_-0.2800",676,-0.1,"Congruent","-1",0.28,"right",0,0.471
"S048","Illusion_Session2",NA,15.777,"2400x1211",2.9064,60.07,"chrome","108.0.0","Windows 10","Ebbinghaus",1,9,"Ebbinghaus_0.10000_-0.2800",761,0.1,"Incongruent","-1",0.28,"right",0,0.657
"S048","Illusion_Session2",NA,15.777,"2400x1211",2.9064,60.07,"chrome","108.0.0","Windows 10","Ebbinghaus",1,10,"Ebbinghaus_0.87143_-0.11071",738,0.87143,"Incongruent","-1",0.11071,"right",0,0.51
"S048","Illusion_Session2",NA,15.777,"2400x1211",2.9064,60.07,"chrome","108.0.0","Windows 10","Ebbinghaus",1,11,"Ebbinghaus_-0.35714_-0.15857",833,-0.35714,"Congruent","-1",0.15857,"right",0,0.407
"S048","Illusion_Session2",NA,15.777,"2400x1211",2.9064,60.07,"chrome","108.0.0","Windows 10","Ebbinghaus",1,12,"Ebbinghaus_-0.1000_0.28000",651,-0.1,"Congruent","1",0.28,"left",0,0.433
"S048","Illusion_Session2",NA,15.777,"2400x1211",2.9064,60.07,"chrome","108.0.0","Windows 10","Ebbinghaus",1,13,"Ebbinghaus_-0.1000_-0.11071",569,-0.1,"Congruent","-1",0.11071,"right",0,0.603
"S048","Illusion_Session2",NA,15.777,"2400x1211",2.9064,60.07,"chrome","108.0.0","Windows 10","Ebbinghaus",1,14,"Ebbinghaus_-0.87143_-0.15857",566,-0.87143,"Congruent","-1",0.15857,"left",1,0.366
"S048","Illusion_Session2",NA,15.777,"2400x1211",2.9064,60.07,"chrome","108.0.0","Windows 10","Ebbinghaus",1,15,"Ebbinghaus_-0.35714_-0.2150",781,-0.35714,"Congruent","-1",0.215,"right",0,0.425
"S048","Illusion_Session2",NA,15.777,"2400x1211",2.9064,60.07,"chrome","108.0.0","Windows 10","Ebbinghaus",1,16,"Ebbinghaus_0.87143_0.21500",512,0.87143,"Incongruent","1",0.215,"left",0,0.493
"S048","Illusion_Session2",NA,15.777,"2400x1211",2.9064,60.07,"chrome","108.0.0","Windows 10","Ebbinghaus",1,17,"Ebbinghaus_0.87143_-0.2150",745,0.87143,"Incongruent","-1",0.215,"right",0,0.416
"S048","Illusion_Session2",NA,15.777,"2400x1211",2.9064,60.07,"chrome","108.0.0","Windows 10","Ebbinghaus",1,18,"Ebbinghaus_0.10000_-0.11071",937,0.1,"Incongruent","-1",0.11071,"right",0,0.415
"S048","Illusion_Session2",NA,15.777,"2400x1211",2.9064,60.07,"chrome","108.0.0","Windows 10","Ebbinghaus",1,19,"Ebbinghaus_0.35714_-0.15857",814,0.35714,"Incongruent","-1",0.15857,"right",0,0.422
"S048","Illusion_Session2",NA,15.777,"2400x1211",2.9064,60.07,"chrome","108.0.0","Windows 10","Ebbinghaus",1,20,"Ebbinghaus_-0.1000_0.11071",552,-0.1,"Congruent","1",0.11071,"left",0,0.662
"S048","Illusion_Session2",NA,15.777,"2400x1211",2.9064,60.07,"chrome","108.0.0","Windows 10","Ebbinghaus",1,21,"Ebbinghaus_0.10000_-0.2150",865,0.1,"Incongruent","-1",0.215,"right",0,0.709
"S048","Illusion_Session2",NA,15.777,"2400x1211",2.9064,60.07,"chrome","108.0.0","Windows 10","Ebbinghaus",1,22,"Ebbinghaus_-0.61429_-0.11071",655,-0.61429,"Congruent","-1",0.11071,"right",0,0.513
"S048","Illusion_Session2",NA,15.777,"2400x1211",2.9064,60.07,"chrome","108.0.0","Windows 10","Ebbinghaus",1,23,"Ebbinghaus_0.10000_0.21500",743,0.1,"Incongruent","1",0.215,"left",0,0.656
"S048","Illusion_Session2",NA,15.777,"2400x1211",2.9064,60.07,"chrome","108.0.0","Windows 10","Ebbinghaus",1,24,"Ebbinghaus_-0.35714_0.11071",751,-0.35714,"Congruent","1",0.11071,"left",0,0.523
"S048","Illusion_Session2",NA,15.777,"2400x1211",2.9064,60.07,"chrome","108.0.0","Windows 10","Ebbinghaus",1,25,"Ebbinghaus_0.10000_0.11071",824,0.1,"Incongruent","1",0.11071,"left",0,0.705
"S048","Illusion_Session2",NA,15.777,"2400x1211",2.9064,60.07,"chrome","108.0.0","Windows 10","Ebbinghaus",1,26,"Ebbinghaus_0.87143_-0.2800",506,0.87143,"Incongruent","-1",0.28,"left",1,0.655
"S048","Illusion_Session2",NA,15.777,"2400x1211",2.9064,60.07,"chrome","108.0.0","Windows 10","Ebbinghaus",1,27,"Ebbinghaus_-0.1000_0.15857",528,-0.1,"Congruent","1",0.15857,"left",0,0.74
"S048","Illusion_Session2",NA,15.777,"2400x1211",2.9064,60.07,"chrome","108.0.0","Windows 10","Ebbinghaus",1,28,"Ebbinghaus_0.35714_0.28000",636,0.35714,"Incongruent","1",0.28,"left",0,0.449
"S048","Illusion_Session2",NA,15.777,"2400x1211",2.9064,60.07,"chrome","108.0.0","Windows 10","Ebbinghaus",1,29,"Ebbinghaus_-0.61429_0.15857",879,-0.61429,"Congruent","1",0.15857,"left",0,0.506
"S048","Illusion_Session2",NA,15.777,"2400x1211",2.9064,60.07,"chrome","108.0.0","Windows 10","Ebbinghaus",1,30,"Ebbinghaus_0.61429_-0.11071",541,0.61429,"Incongruent","-1",0.11071,"left",1,0.726
"S048","Illusion_Session2",NA,15.777,"2400x1211",2.9064,60.07,"chrome","108.0.0","Windows 10","Ebbinghaus",1,31,"Ebbinghaus_0.35714_0.21500",930,0.35714,"Incongruent","1",0.215,"left",0,0.508
"S048","Illusion_Session2",NA,15.777,"2400x1211",2.9064,60.07,"chrome","108.0.0","Windows 10","Ebbinghaus",1,32,"Ebbinghaus_-0.87143_-0.11071",521,-0.87143,"Congruent","-1",0.11071,"right",0,0.695
"S048","Illusion_Session2",NA,15.777,"2400x1211",2.9064,60.07,"chrome","108.0.0","Windows 10","Ebbinghaus",1,33,"Ebbinghaus_0.35714_-0.11071",819,0.35714,"Incongruent","-1",0.11071,"right",0,0.599
"S048","Illusion_Session2",NA,15.777,"2400x1211",2.9064,60.07,"chrome","108.0.0","Windows 10","Ebbinghaus",1,34,"Ebbinghaus_-0.35714_-0.2800",582,-0.35714,"Congruent","-1",0.28,"right",0,0.511
"S048","Illusion_Session2",NA,15.777,"2400x1211",2.9064,60.07,"chrome","108.0.0","Windows 10","Ebbinghaus",1,35,"Ebbinghaus_0.87143_0.11071",585,0.87143,"Incongruent","1",0.11071,"right",1,0.494
"S048","Illusion_Session2",NA,15.777,"2400x1211",2.9064,60.07,"chrome","108.0.0","Windows 10","Ebbinghaus",1,36,"Ebbinghaus_-0.61429_0.21500",510,-0.61429,"Congruent","1",0.215,"left",0,0.52
