"Participant","Task","Task_Order","Duration","Screen_Resolution","Screen_Size","Screen_Refresh","Browser","Browser_Version","Device_OS","Illusion_Type","Block","Trial","Stimulus","Illusion_Strength","Illusion_Effect","Illusion_Side","Illusion_Difference","Answer","Error","RT"
"S003","Perceptual",2,27.4175166666667,"1920x937",1.79904,60,"chrome","107.0.0","Windows 10","MullerLyer",1,1,"MullerLyer_perceptual_0000000_0.08007",0,"Incongruent","1",0.08007,"up",0,"1220"
"S003","Perceptual",2,27.4175166666667,"1920x937",1.79904,60,"chrome","107.0.0","Windows 10","MullerLyer",1,2,"MullerLyer_perceptual_0000000_-0.21255",0,"Incongruent","-1",0.21255,"down",0,"578"
"S003","Perceptual",2,27.4175166666667,"1920x937",1.79904,60,"chrome","107.0.0","Windows 10","MullerLyer",1,3,"MullerLyer_perceptual_0000000_0.18098",0,"Incongruent","1",0.18098,"up",0,"464"
"S003","Perceptual",2,27.4175166666667,"1920x937",1.79904,60,"chrome","107.0.0","Windows 10","MullerLyer",1,4,"MullerLyer_perceptual_0000000_-0.10149",0,"Incongruent","-1",0.10149,"down",0,"356"
"S003","Perceptual",2,27.4175166666667,"1920x937",1.79904,60,"chrome","107.0.0","Windows 10","MullerLyer",1,5,"MullerLyer_perceptual_0000000_0.05545",0,"Incongruent","1",0.05545,"up",0,"818"
"S003","Perceptual",2,27.4175166666667,"1920x937",1.79904,60,"chrome","107.0.0","Windows 10","MullerLyer",1,6,"MullerLyer_perceptual_0000000_-0.15194",0,"Incongruent","-1",0.15194,"down",0,"450"
"S003","Perceptual",2,27.4175166666667,"1920x937",1.79904,60,"chrome","107.0.0","Windows 10","MullerLyer",1,7,"MullerLyer_perceptual_0000000_0.29607",0,"Incongruent","1",0.29607,"up",0,"583"
"S003","Perceptual",2,27.4175166666667,"1920x937",1.79904,60,"chrome","107.0.0","Windows 10","MullerLyer",1,8,"MullerLyer_perceptual_0000000_-0.19122",0,"Incongruent","-1",0.19122,"down",0,"698"
"S003","Perceptual",2,27.4175166666667,"1920x937",1.79904,60,"chrome","107.0.0","Windows 10","MullerLyer",1,9,"MullerLyer_perceptual_0000000_0.32247",0,"Incongruent","1",0.32247,"up",0,"494"
"S003","Perceptual",2,27.4175166666667,"1920x937",1.79904,60,"chrome","107.0.0","Windows 10","MullerLyer",1,10,"MullerLyer_perceptual_0000000_0.09407",0,"Incongruent","1",0.09407,"up",0,"609"
"S003","Perceptual",2,27.4175166666667,"1920x937",1.79904,60,"chrome","107.0.0","Windows 10","MullerLyer",1,11,"MullerLyer_perceptual_0000000_0.10919",0,"Incongruent","1",0.10919,"up",0,"742"
"S003","Perceptual",2,27.4175166666667,"1920x937",1.79904,60,"chrome","107.0.0","Windows 10","MullerLyer",1,12,"MullerLyer_perceptual_0000000_0.35000",0,"Incongruent","1",0.35,"up",0,"437"
"S003","Perceptual",2,27.4175166666667,"1920x937",1.79904,60,"chrome","107.0.0","Windows 10","MullerLyer",1,13,"MullerLyer_perceptual_0000000_-0.1340",0,"Incongruent","-1",0.134,"down",0,"520"
"S003","Perceptual",2,27.4175166666667,"1920x937",1.79904,60,"chrome","107.0.0","Windows 10","MullerLyer",1,14,"MullerLyer_perceptual_0000000_-0.11718",0,"Incongruent","-1",0.11718,"down",0,"498"
"S003","Perceptual",2,27.4175166666667,"1920x937",1.79904,60,"chrome","107.0.0","Windows 10","MullerLyer",1,15,"MullerLyer_perceptual_0000000_0.14283",0,"Incongruent","1",0.14283,"up",0,"517"
"S003","Perceptual",2,27.4175166666667,"1920x937",1.79904,60,"chrome","107.0.0","Windows 10","MullerLyer",1,16,"MullerLyer_perceptual_0000000_0.06719",0,"Incongruent","1",0.06719,"up",0,"643"
"S003","Perceptual",2,27.4175166666667,"1920x937",1.79904,60,"chrome","107.0.0","Windows 10","MullerLyer",1,17,"MullerLyer_perceptual_0000000_0.22363",0,"Incongruent","1",0.22363,"up",0,"412"
"S003","Perceptual",2,27.4175166666667,"1920x937",1.79904,60,"chrome","107.0.0","Windows 10","MullerLyer",1,18,"MullerLyer_perceptual_0000000_-0.17102",0,"Incongruent","-1",0.17102,"down",0,"500"
"S003","Perceptual",2,27.4175166666667,"1920x937",1.79904,60,"chrome","107.0.0","Windows 10","MullerLyer",1,19,"MullerLyer_perceptual_0000000_0.12545",0,"Incongruent","1",0.12545,"up",0,"405"
"S003","Perceptual",2,27.4175166666667,"1920x937",1.79904,60,"chrome","107.0.0","Windows 10","MullerLyer",1,20,"MullerLyer_perceptual_0000000_-0.08693",0,"Incongruent","-1",0.08693,"down",0,"510"
"S003","Perceptual",2,27.4175166666667,"1920x937",1.79904,60,"chrome","107.0.0","Windows 10","MullerLyer",1,21,"MullerLyer_perceptual_0000000_-0.0500",0,"Incongruent","-1",0.05,"down",0,"718"
"S003","Perceptual",2,27.4175166666667,"1920x937",1.79904,60,"chrome","107.0.0","Windows 10","MullerLyer",1,22,"MullerLyer_perceptual_0000000_-0.2350",0,"Incongruent","-1",0.235,"down",0,"485"
"S003","Perceptual",2,27.4175166666667,"1920x937",1.79904,60,"chrome","107.0.0","Windows 10","MullerLyer",1,23,"MullerLyer_perceptual_0000000_-0.06118",0,"Incongruent","-1",0.06118,"up",1,"626"
"S003","Perceptual",2,27.4175166666667,"1920x937",1.79904,60,"chrome","107.0.0","Windows 10","MullerLyer",1,24,"MullerLyer_perceptual_0000000_-0.3500",0,"Incongruent","-1",0.35,"down",0,"456"
"S003","Perceptual",2,27.4175166666667,"1920x937",1.79904,60,"chrome","107.0.0","Windows 10","MullerLyer",1,25,"MullerLyer_perceptual_0000000_0.24665",0,"Incongruent","1",0.24665,"up",0,"557"
"S003","Perceptual",2,27.4175166666667,"1920x937",1.79904,60,"chrome","107.0.0","Windows 10","MullerLyer",1,26,"MullerLyer_perceptual_0000000_0.16134",0,"Incongruent","1",0.16134,"up",0,"625"
"S003","Perceptual",2,27.4175166666667,"1920x937",1.79904,60,"chrome","107.0.0","Windows 10","MullerLyer",1,27,"MullerLyer_perceptual_0000000_-0.07349",0,"Incongruent","-1",0.07349,"down",0,"574"
"S003","Perceptual",2,27.4175166666667,"1920x937",1.79904,60,"chrome","107.0.0","Windows 10","MullerLyer",1,28,"MullerLyer_perceptual_0000000_0.20174",0,"Incongruent","1",0.20174,"up",0,"576"
"S003","Perceptual",2,27.4175166666667,"1920x937",1.79904,60,"chrome","107.0.0","Windows 10","MullerLyer",1,29,"MullerLyer_perceptual_0000000_-0.29607",0,"Incongruent","-1",0.29607,"down",0,"587"
"S003","Perceptual",2,27.4175166666667,"1920x937",1.79904,60,"chrome","107.0.0","Windows 10","MullerLyer",1,30,"MullerLyer_perceptual_0000000_-0.2708",0,"Incongruent","-1",0.2708,"down",0,"428"
"S003","Perceptual",2,27.4175166666667,"1920x937",1.79904,60,"chrome","107.0.0","Windows 10","MullerLyer",1,31,"MullerLyer_perceptual_0000000_-0.32247",0,"Incongruent","-1",0.32247,"down",0,"462"
"S003","Perceptual",2,27.4175166666667,"1920x937",1.79904,60,"chrome","107.0.0","Windows 10","MullerLyer",1,32,"MullerLyer_perceptual_0000000_0.27080",0,"Incongruent","1",0.2708,"up",0,"601"
"S003","Perceptual",2,27.4175166666667,"1920x937",1.79904,60,"chrome","107.0.0","Windows 10","Ebbinghaus",1,1,"Ebbinghaus_perceptual_0000000_0.18119",0,"Incongruent","1",0.18119,"left",0,"600"
"S003","Perceptual",2,27.4175166666667,"1920x937",1.79904,60,"chrome","107.0.0","Windows 10","Ebbinghaus",1,2,"Ebbinghaus_perceptual_0000000_-0.17495",0,"Incongruent","-1",0.17495,"right",0,"487"
"S003","Perceptual",2,27.4175166666667,"1920x937",1.79904,60,"chrome","107.0.0","Windows 10","Ebbinghaus",1,3,"Ebbinghaus_perceptual_0000000_0.22091",0,"Incongruent","1",0.22091,"left",0,"411"
"S003","Perceptual",2,27.4175166666667,"1920x937",1.79904,60,"chrome","107.0.0","Windows 10","Ebbinghaus",1,4,"Ebbinghaus_perceptual_0000000_-0.13982",0,"Incongruent","-1",0.13982,"right",0,"435"
"S003","Perceptual",2,27.4175166666667,"1920x937",1.79904,60,"chrome","107.0.0","Windows 10","Ebbinghaus",1,5,"Ebbinghaus_perceptual_0000000_0.09449",0,"Incongruent","1",0.09449,"right",1,"522"
"S003","Perceptual",2,27.4175166666667,"1920x937",1.79904,60,"chrome","107.0.0","Windows 10","Ebbinghaus",1,6,"Ebbinghaus_perceptual_0000000_0.28000",0,"Incongruent","1",0.28,"left",0,"411"
"S003","Perceptual",2,27.4175166666667,"1920x937",1.79904,60,"chrome","107.0.0","Windows 10","Ebbinghaus",1,7,"Ebbinghaus_perceptual_0000000_-0.2800",0,"Incongruent","-1",0.28,"right",0,"475"
"S003","Perceptual",2,27.4175166666667,"1920x937",1.79904,60,"chrome","107.0.0","Windows 10","Ebbinghaus",1,8,"Ebbinghaus_perceptual_0000000_-0.0900",0,"Incongruent","-1",0.09,"right",0,"590"
"S003","Perceptual",2,27.4175166666667,"1920x937",1.79904,60,"chrome","107.0.0","Windows 10","Ebbinghaus",1,9,"Ebbinghaus_perceptual_0000000_-0.11858",0,"Incongruent","-1",0.11858,"right",0,"555"
"S003","Perceptual",2,27.4175166666667,"1920x937",1.79904,60,"chrome","107.0.0","Windows 10","Ebbinghaus",1,10,"Ebbinghaus_perceptual_0000000_0.12372",0,"Incongruent","1",0.12372,"left",0,"593"
"S003","Perceptual",2,27.4175166666667,"1920x937",1.79904,60,"chrome","107.0.0","Windows 10","Ebbinghaus",1,11,"Ebbinghaus_perceptual_0000000_0.11354",0,"Incongruent","1",0.11354,"left",0,"708"
"S003","Perceptual",2,27.4175166666667,"1920x937",1.79904,60,"chrome","107.0.0","Windows 10","Ebbinghaus",1,12,"Ebbinghaus_perceptual_0000000_0.16882",0,"Incongruent","1",0.16882,"left",0,"409"
"S003","Perceptual",2,27.4175166666667,"1920x937",1.79904,60,"chrome","107.0.0","Windows 10","Ebbinghaus",1,13,"Ebbinghaus_perceptual_0000000_0.23503",0,"Incongruent","1",0.23503,"left",0,"448"
"S003","Perceptual",2,27.4175166666667,"1920x937",1.79904,60,"chrome","107.0.0","Windows 10","Ebbinghaus",1,14,"Ebbinghaus_perceptual_0000000_-0.21402",0,"Incongruent","-1",0.21402,"left",1,"394"
"S003","Perceptual",2,27.4175166666667,"1920x937",1.79904,60,"chrome","107.0.0","Windows 10","Ebbinghaus",1,15,"Ebbinghaus_perceptual_0000000_0.14540",0,"Incongruent","1",0.1454,"left",0,"764"
"S003","Perceptual",2,27.4175166666667,"1920x937",1.79904,60,"chrome","107.0.0","Windows 10","Ebbinghaus",1,16,"Ebbinghaus_perceptual_0000000_-0.10861",0,"Incongruent","-1",0.10861,"right",0,"486"
"S003","Perceptual",2,27.4175166666667,"1920x937",1.79904,60,"chrome","107.0.0","Windows 10","Ebbinghaus",1,17,"Ebbinghaus_perceptual_0000000_0.13434",0,"Incongruent","1",0.13434,"left",0,"592"
"S003","Perceptual",2,27.4175166666667,"1920x937",1.79904,60,"chrome","107.0.0","Windows 10","Ebbinghaus",1,18,"Ebbinghaus_perceptual_0000000_-0.23503",0,"Incongruent","-1",0.23503,"right",0,"748"
"S003","Perceptual",2,27.4175166666667,"1920x937",1.79904,60,"chrome","107.0.0","Windows 10","Ebbinghaus",1,19,"Ebbinghaus_perceptual_0000000_-0.26457",0,"Incongruent","-1",0.26457,"right",0,"632"
"S003","Perceptual",2,27.4175166666667,"1920x937",1.79904,60,"chrome","107.0.0","Windows 10","Ebbinghaus",1,20,"Ebbinghaus_perceptual_0000000_-0.20056",0,"Incongruent","-1",0.20056,"right",0,"559"
"S003","Perceptual",2,27.4175166666667,"1920x937",1.79904,60,"chrome","107.0.0","Windows 10","Ebbinghaus",1,21,"Ebbinghaus_perceptual_0000000_-0.24958",0,"Incongruent","-1",0.24958,"right",0,"471"
"S003","Perceptual",2,27.4175166666667,"1920x937",1.79904,60,"chrome","107.0.0","Windows 10","Ebbinghaus",1,22,"Ebbinghaus_perceptual_0000000_0.19399",0,"Incongruent","1",0.19399,"left",0,"571"
"S003","Perceptual",2,27.4175166666667,"1920x937",1.79904,60,"chrome","107.0.0","Windows 10","Ebbinghaus",1,23,"Ebbinghaus_perceptual_0000000_-0.12898",0,"Incongruent","-1",0.12898,"right",0,"442"
"S003","Perceptual",2,27.4175166666667,"1920x937",1.79904,60,"chrome","107.0.0","Windows 10","Ebbinghaus",1,24,"Ebbinghaus_perceptual_0000000_0.20724",0,"Incongruent","1",0.20724,"left",0,"461"
"S003","Perceptual",2,27.4175166666667,"1920x937",1.79904,60,"chrome","107.0.0","Windows 10","Ebbinghaus",1,25,"Ebbinghaus_perceptual_0000000_-0.18754",0,"Incongruent","-1",0.18754,"right",0,"520"
"S003","Perceptual",2,27.4175166666667,"1920x937",1.79904,60,"chrome","107.0.0","Windows 10","Ebbinghaus",1,26,"Ebbinghaus_perceptual_0000000_-0.09909",0,"Incongruent","-1",0.09909,"right",0,"1050"
"S003","Perceptual",2,27.4175166666667,"1920x937",1.79904,60,"chrome","107.0.0","Windows 10","Ebbinghaus",1,27,"Ebbinghaus_perceptual_0000000_0.10380",0,"Incongruent","1",0.1038,"left",0,"604"
"S003","Perceptual",2,27.4175166666667,"1920x937",1.79904,60,"chrome","107.0.0","Windows 10","Ebbinghaus",1,28,"Ebbinghaus_perceptual_0000000_0.15689",0,"Incongruent","1",0.15689,"left",0,"546"
"S003","Perceptual",2,27.4175166666667,"1920x937",1.79904,60,"chrome","107.0.0","Windows 10","Ebbinghaus",1,29,"Ebbinghaus_perceptual_0000000_0.24958",0,"Incongruent","1",0.24958,"left",0,"446"
"S003","Perceptual",2,27.4175166666667,"1920x937",1.79904,60,"chrome","107.0.0","Windows 10","Ebbinghaus",1,30,"Ebbinghaus_perceptual_0000000_0.26457",0,"Incongruent","1",0.26457,"left",0,"484"
"S003","Perceptual",2,27.4175166666667,"1920x937",1.79904,60,"chrome","107.0.0","Windows 10","Ebbinghaus",1,31,"Ebbinghaus_perceptual_0000000_-0.1628",0,"Incongruent","-1",0.1628,"right",0,"567"
"S003","Perceptual",2,27.4175166666667,"1920x937",1.79904,60,"chrome","107.0.0","Windows 10","Ebbinghaus",1,32,"Ebbinghaus_perceptual_0000000_-0.15109",0,"Incongruent","-1",0.15109,"right",0,"605"
"S003","Perceptual",2,27.4175166666667,"1920x937",1.79904,60,"chrome","107.0.0","Windows 10","VerticalHorizontal",1,1,"VerticalHorizontal_0000000_-0.10283",0,"Incongruent","-1",0.10283,"right",0,"803"
"S003","Perceptual",2,27.4175166666667,"1920x937",1.79904,60,"chrome","107.0.0","Windows 10","VerticalHorizontal",1,2,"VerticalHorizontal_0000000_-0.20992",0,"Incongruent","-1",0.20992,"right",0,"581"
"S003","Perceptual",2,27.4175166666667,"1920x937",1.79904,60,"chrome","107.0.0","Windows 10","VerticalHorizontal",1,3,"VerticalHorizontal_0000000_-0.12462",0,"Incongruent","-1",0.12462,"left",1,"652"
"S003","Perceptual",2,27.4175166666667,"1920x937",1.79904,60,"chrome","107.0.0","Windows 10","VerticalHorizontal",1,4,"VerticalHorizontal_0000000_-0.16124",0,"Incongruent","-1",0.16124,"right",0,"2323"
"S003","Perceptual",2,27.4175166666667,"1920x937",1.79904,60,"chrome","107.0.0","Windows 10","VerticalHorizontal",1,5,"VerticalHorizontal_0000000_-0.18132",0,"Incongruent","-1",0.18132,"left",1,"665"
"S003","Perceptual",2,27.4175166666667,"1920x937",1.79904,60,"chrome","107.0.0","Windows 10","VerticalHorizontal",1,6,"VerticalHorizontal_0000000_0.15481",0,"Incongruent","1",0.15481,"left",0,"602"
"S003","Perceptual",2,27.4175166666667,"1920x937",1.79904,60,"chrome","107.0.0","Windows 10","VerticalHorizontal",1,7,"VerticalHorizontal_0000000_0.19535",0,"Incongruent","1",0.19535,"left",0,"450"
"S003","Perceptual",2,27.4175166666667,"1920x937",1.79904,60,"chrome","107.0.0","Windows 10","VerticalHorizontal",1,8,"VerticalHorizontal_0000000_-0.06552",0,"Incongruent","-1",0.06552,"right",0,"824"
"S003","Perceptual",2,27.4175166666667,"1920x937",1.79904,60,"chrome","107.0.0","Windows 10","VerticalHorizontal",1,9,"VerticalHorizontal_0000000_-0.2250",0,"Incongruent","-1",0.225,"right",0,"575"
"S003","Perceptual",2,27.4175166666667,"1920x937",1.79904,60,"chrome","107.0.0","Windows 10","VerticalHorizontal",1,10,"VerticalHorizontal_0000000_-0.07406",0,"Incongruent","-1",0.07406,"left",1,"858"
"S003","Perceptual",2,27.4175166666667,"1920x937",1.79904,60,"chrome","107.0.0","Windows 10","VerticalHorizontal",1,11,"VerticalHorizontal_0000000_0.06144",0,"Incongruent","1",0.06144,"left",0,"560"
"S003","Perceptual",2,27.4175166666667,"1920x937",1.79904,60,"chrome","107.0.0","Windows 10","VerticalHorizontal",1,12,"VerticalHorizontal_0000000_0.09770",0,"Incongruent","1",0.0977,"left",0,"513"
"S003","Perceptual",2,27.4175166666667,"1920x937",1.79904,60,"chrome","107.0.0","Windows 10","VerticalHorizontal",1,13,"VerticalHorizontal_0000000_-0.14851",0,"Incongruent","-1",0.14851,"right",0,"563"
"S003","Perceptual",2,27.4175166666667,"1920x937",1.79904,60,"chrome","107.0.0","Windows 10","VerticalHorizontal",1,14,"VerticalHorizontal_0000000_-0.08312",0,"Incongruent","-1",0.08312,"right",0,"578"
"S003","Perceptual",2,27.4175166666667,"1920x937",1.79904,60,"chrome","107.0.0","Windows 10","VerticalHorizontal",1,15,"VerticalHorizontal_0000000_-0.1363",0,"Incongruent","-1",0.1363,"left",1,"758"
"S003","Perceptual",2,27.4175166666667,"1920x937",1.79904,60,"chrome","107.0.0","Windows 10","VerticalHorizontal",1,16,"VerticalHorizontal_0000000_0.18132",0,"Incongruent","1",0.18132,"left",0,"519"
"S003","Perceptual",2,27.4175166666667,"1920x937",1.79904,60,"chrome","107.0.0","Windows 10","VerticalHorizontal",1,17,"VerticalHorizontal_0000000_0.11898",0,"Incongruent","1",0.11898,"left",0,"532"
"S003","Perceptual",2,27.4175166666667,"1920x937",1.79904,60,"chrome","107.0.0","Windows 10","VerticalHorizontal",1,18,"VerticalHorizontal_0000000_0.16780",0,"Incongruent","1",0.1678,"left",0,"522"
"S003","Perceptual",2,27.4175166666667,"1920x937",1.79904,60,"chrome","107.0.0","Windows 10","VerticalHorizontal",1,19,"VerticalHorizontal_0000000_0.20992",0,"Incongruent","1",0.20992,"left",0,"624"
"S003","Perceptual",2,27.4175166666667,"1920x937",1.79904,60,"chrome","107.0.0","Windows 10","VerticalHorizontal",1,20,"VerticalHorizontal_0000000_-0.0500",0,"Incongruent","-1",0.05,"left",1,"783"
"S003","Perceptual",2,27.4175166666667,"1920x937",1.79904,60,"chrome","107.0.0","Windows 10","VerticalHorizontal",1,21,"VerticalHorizontal_0000000_0.08785",0,"Incongruent","1",0.08785,"left",0,"631"
"S003","Perceptual",2,27.4175166666667,"1920x937",1.79904,60,"chrome","107.0.0","Windows 10","VerticalHorizontal",1,22,"VerticalHorizontal_0000000_0.22500",0,"Incongruent","1",0.225,"left",0,"477"
"S003","Perceptual",2,27.4175166666667,"1920x937",1.79904,60,"chrome","107.0.0","Windows 10","VerticalHorizontal",1,23,"VerticalHorizontal_0000000_-0.11346",0,"Incongruent","-1",0.11346,"right",0,"617"
"S003","Perceptual",2,27.4175166666667,"1920x937",1.79904,60,"chrome","107.0.0","Windows 10","VerticalHorizontal",1,24,"VerticalHorizontal_0000000_0.07853",0,"Incongruent","1",0.07853,"left",0,"537"
"S003","Perceptual",2,27.4175166666667,"1920x937",1.79904,60,"chrome","107.0.0","Windows 10","VerticalHorizontal",1,25,"VerticalHorizontal_0000000_-0.09271",0,"Incongruent","-1",0.09271,"right",0,"821"
"S003","Perceptual",2,27.4175166666667,"1920x937",1.79904,60,"chrome","107.0.0","Windows 10","VerticalHorizontal",1,26,"VerticalHorizontal_0000000_-0.0575",0,"Incongruent","-1",0.0575,"right",0,"662"
"S003","Perceptual",2,27.4175166666667,"1920x937",1.79904,60,"chrome","107.0.0","Windows 10","VerticalHorizontal",1,27,"VerticalHorizontal_0000000_0.05368",0,"Incongruent","1",0.05368,"left",0,"519"
"S003","Perceptual",2,27.4175166666667,"1920x937",1.79904,60,"chrome","107.0.0","Windows 10","VerticalHorizontal",1,28,"VerticalHorizontal_0000000_0.14234",0,"Incongruent","1",0.14234,"left",0,"576"
"S003","Perceptual",2,27.4175166666667,"1920x937",1.79904,60,"chrome","107.0.0","Windows 10","VerticalHorizontal",1,29,"VerticalHorizontal_0000000_0.06972",0,"Incongruent","1",0.06972,"left",0,"479"
"S003","Perceptual",2,27.4175166666667,"1920x937",1.79904,60,"chrome","107.0.0","Windows 10","VerticalHorizontal",1,30,"VerticalHorizontal_0000000_-0.19535",0,"Incongruent","-1",0.19535,"right",0,"655"
"S003","Perceptual",2,27.4175166666667,"1920x937",1.79904,60,"chrome","107.0.0","Windows 10","VerticalHorizontal",1,31,"VerticalHorizontal_0000000_0.10808",0,"Incongruent","1",0.10808,"left",0,"665"
"S003","Perceptual",2,27.4175166666667,"1920x937",1.79904,60,"chrome","107.0.0","Windows 10","VerticalHorizontal",1,32,"VerticalHorizontal_0000000_0.13040",0,"Incongruent","1",0.1304,"left",0,"472"
"S003","Perceptual",2,27.4175166666667,"1920x937",1.79904,60,"chrome","107.0.0","Windows 10","MullerLyer",2,1,"MullerLyer_perceptual_0000000_0.25858",0,"Incongruent","1",0.25858,"up",0,"785"
"S003","Perceptual",2,27.4175166666667,"1920x937",1.79904,60,"chrome","107.0.0","Windows 10","MullerLyer",2,2,"MullerLyer_perceptual_0000000_0.17102",0,"Incongruent","1",0.17102,"down",1,"713"
"S003","Perceptual",2,27.4175166666667,"1920x937",1.79904,60,"chrome","107.0.0","Windows 10","MullerLyer",2,3,"MullerLyer_perceptual_0000000_-0.28329",0,"Incongruent","-1",0.28329,"down",0,"520"
"S003","Perceptual",2,27.4175166666667,"1920x937",1.79904,60,"chrome","107.0.0","Windows 10","MullerLyer",2,4,"MullerLyer_perceptual_0000000_-0.24665",0,"Incongruent","-1",0.24665,"down",0,"468"
"S003","Perceptual",2,27.4175166666667,"1920x937",1.79904,60,"chrome","107.0.0","Windows 10","MullerLyer",2,5,"MullerLyer_perceptual_0000000_-0.06719",0,"Incongruent","-1",0.06719,"down",0,"668"
"S003","Perceptual",2,27.4175166666667,"1920x937",1.79904,60,"chrome","107.0.0","Windows 10","MullerLyer",2,6,"MullerLyer_perceptual_0000000_0.06118",0,"Incongruent","1",0.06118,"down",1,"389"
"S003","Perceptual",2,27.4175166666667,"1920x937",1.79904,60,"chrome","107.0.0","Windows 10","MullerLyer",2,7,"MullerLyer_perceptual_0000000_-0.18098",0,"Incongruent","-1",0.18098,"down",0,"606"
"S003","Perceptual",2,27.4175166666667,"1920x937",1.79904,60,"chrome","107.0.0","Windows 10","MullerLyer",2,8,"MullerLyer_perceptual_0000000_0.10149",0,"Incongruent","1",0.10149,"up",0,"609"
"S003","Perceptual",2,27.4175166666667,"1920x937",1.79904,60,"chrome","107.0.0","Windows 10","MullerLyer",2,9,"MullerLyer_perceptual_0000000_0.33609",0,"Incongruent","1",0.33609,"up",0,"542"
"S003","Perceptual",2,27.4175166666667,"1920x937",1.79904,60,"chrome","107.0.0","Windows 10","MullerLyer",2,10,"MullerLyer_perceptual_0000000_-0.12545",0,"Incongruent","-1",0.12545,"down",0,"554"
"S003","Perceptual",2,27.4175166666667,"1920x937",1.79904,60,"chrome","107.0.0","Windows 10","MullerLyer",2,11,"MullerLyer_perceptual_0000000_-0.22363",0,"Incongruent","-1",0.22363,"down",0,"849"
"S003","Perceptual",2,27.4175166666667,"1920x937",1.79904,60,"chrome","107.0.0","Windows 10","MullerLyer",2,12,"MullerLyer_perceptual_0000000_0.19122",0,"Incongruent","1",0.19122,"up",0,"568"
"S003","Perceptual",2,27.4175166666667,"1920x937",1.79904,60,"chrome","107.0.0","Windows 10","MullerLyer",2,13,"MullerLyer_perceptual_0000000_0.30913",0,"Incongruent","1",0.30913,"up",0,"771"
"S003","Perceptual",2,27.4175166666667,"1920x937",1.79904,60,"chrome","107.0.0","Windows 10","MullerLyer",2,14,"MullerLyer_perceptual_0000000_0.08693",0,"Incongruent","1",0.08693,"down",1,"692"
"S003","Perceptual",2,27.4175166666667,"1920x937",1.79904,60,"chrome","107.0.0","Windows 10","MullerLyer",2,15,"MullerLyer_perceptual_0000000_0.23500",0,"Incongruent","1",0.235,"up",0,"498"
"S003","Perceptual",2,27.4175166666667,"1920x937",1.79904,60,"chrome","107.0.0","Windows 10","MullerLyer",2,16,"MullerLyer_perceptual_0000000_-0.16134",0,"Incongruent","-1",0.16134,"down",0,"498"
"S003","Perceptual",2,27.4175166666667,"1920x937",1.79904,60,"chrome","107.0.0","Windows 10","MullerLyer",2,17,"MullerLyer_perceptual_0000000_0.28329",0,"Incongruent","1",0.28329,"up",0,"551"
"S003","Perceptual",2,27.4175166666667,"1920x937",1.79904,60,"chrome","107.0.0","Windows 10","MullerLyer",2,18,"MullerLyer_perceptual_0000000_0.15194",0,"Incongruent","1",0.15194,"up",0,"590"
"S003","Perceptual",2,27.4175166666667,"1920x937",1.79904,60,"chrome","107.0.0","Windows 10","MullerLyer",2,19,"MullerLyer_perceptual_0000000_0.21255",0,"Incongruent","1",0.21255,"down",1,"584"
"S003","Perceptual",2,27.4175166666667,"1920x937",1.79904,60,"chrome","107.0.0","Windows 10","MullerLyer",2,20,"MullerLyer_perceptual_0000000_-0.05545",0,"Incongruent","-1",0.05545,"down",0,"674"
"S003","Perceptual",2,27.4175166666667,"1920x937",1.79904,60,"chrome","107.0.0","Windows 10","MullerLyer",2,21,"MullerLyer_perceptual_0000000_-0.09407",0,"Incongruent","-1",0.09407,"down",0,"655"
"S003","Perceptual",2,27.4175166666667,"1920x937",1.79904,60,"chrome","107.0.0","Windows 10","MullerLyer",2,22,"MullerLyer_perceptual_0000000_0.13400",0,"Incongruent","1",0.134,"up",0,"723"
"S003","Perceptual",2,27.4175166666667,"1920x937",1.79904,60,"chrome","107.0.0","Windows 10","MullerLyer",2,23,"MullerLyer_perceptual_0000000_-0.10919",0,"Incongruent","-1",0.10919,"down",0,"543"
"S003","Perceptual",2,27.4175166666667,"1920x937",1.79904,60,"chrome","107.0.0","Windows 10","MullerLyer",2,24,"MullerLyer_perceptual_0000000_0.05000",0,"Incongruent","1",0.05,"up",0,"1116"
"S003","Perceptual",2,27.4175166666667,"1920x937",1.79904,60,"chrome","107.0.0","Windows 10","MullerLyer",2,25,"MullerLyer_perceptual_0000000_-0.08007",0,"Incongruent","-1",0.08007,"down",0,"820"
"S003","Perceptual",2,27.4175166666667,"1920x937",1.79904,60,"chrome","107.0.0","Windows 10","MullerLyer",2,26,"MullerLyer_perceptual_0000000_-0.25858",0,"Incongruent","-1",0.25858,"down",0,"732"
"S003","Perceptual",2,27.4175166666667,"1920x937",1.79904,60,"chrome","107.0.0","Windows 10","MullerLyer",2,27,"MullerLyer_perceptual_0000000_-0.20174",0,"Incongruent","-1",0.20174,"down",0,"659"
"S003","Perceptual",2,27.4175166666667,"1920x937",1.79904,60,"chrome","107.0.0","Windows 10","MullerLyer",2,28,"MullerLyer_perceptual_0000000_-0.33609",0,"Incongruent","-1",0.33609,"down",0,"597"
"S003","Perceptual",2,27.4175166666667,"1920x937",1.79904,60,"chrome","107.0.0","Windows 10","MullerLyer",2,29,"MullerLyer_perceptual_0000000_-0.30913",0,"Incongruent","-1",0.30913,"down",0,"418"
"S003","Perceptual",2,27.4175166666667,"1920x937",1.79904,60,"chrome","107.0.0","Windows 10","MullerLyer",2,30,"MullerLyer_perceptual_0000000_0.07349",0,"Incongruent","1",0.07349,"up",0,"1807"
"S003","Perceptual",2,27.4175166666667,"1920x937",1.79904,60,"chrome","107.0.0","Windows 10","MullerLyer",2,31,"MullerLyer_perceptual_0000000_0.11718",0,"Incongruent","1",0.11718,"down",1,"789"
"S003","Perceptual",2,27.4175166666667,"1920x937",1.79904,60,"chrome","107.0.0","Windows 10","MullerLyer",2,32,"MullerLyer_perceptual_0000000_-0.14283",0,"Incongruent","-1",0.14283,"down",0,"901"
"S003","Perceptual",2,27.4175166666667,"1920x937",1.79904,60,"chrome","107.0.0","Windows 10","Ebbinghaus",2,1,"Ebbinghaus_perceptual_0000000_0.09909",0,"Incongruent","1",0.09909,"right",1,"335"
"S003","Perceptual",2,27.4175166666667,"1920x937",1.79904,60,"chrome","107.0.0","Windows 10","Ebbinghaus",2,2,"Ebbinghaus_perceptual_0000000_0.25702",0,"Incongruent","1",0.25702,"left",0,"77"
"S003","Perceptual",2,27.4175166666667,"1920x937",1.79904,60,"chrome","107.0.0","Windows 10","Ebbinghaus",2,3,"Ebbinghaus_perceptual_0000000_0.13982",0,"Incongruent","1",0.13982,"right",1,"52"
"S003","Perceptual",2,27.4175166666667,"1920x937",1.79904,60,"chrome","107.0.0","Windows 10","Ebbinghaus",2,4,"Ebbinghaus_perceptual_0000000_-0.13434",0,"Incongruent","-1",0.13434,"left",1,"32"
"S003","Perceptual",2,27.4175166666667,"1920x937",1.79904,60,"chrome","107.0.0","Windows 10","Ebbinghaus",2,5,"Ebbinghaus_perceptual_0000000_-0.25702",0,"Incongruent","-1",0.25702,"right",0,"119"
"S003","Perceptual",2,27.4175166666667,"1920x937",1.79904,60,"chrome","107.0.0","Windows 10","Ebbinghaus",2,6,"Ebbinghaus_perceptual_0000000_0.21402",0,"Incongruent","1",0.21402,"right",1,"101"
"S003","Perceptual",2,27.4175166666667,"1920x937",1.79904,60,"chrome","107.0.0","Windows 10","Ebbinghaus",2,7,"Ebbinghaus_perceptual_0000000_0.16280",0,"Incongruent","1",0.1628,"right",1,"26"
"S003","Perceptual",2,27.4175166666667,"1920x937",1.79904,60,"chrome","107.0.0","Windows 10","Ebbinghaus",2,8,"Ebbinghaus_perceptual_0000000_0.22792",0,"Incongruent","1",0.22792,"left",0,"104"
"S003","Perceptual",2,27.4175166666667,"1920x937",1.79904,60,"chrome","107.0.0","Windows 10","Ebbinghaus",2,9,"Ebbinghaus_perceptual_0000000_0.09000",0,"Incongruent","1",0.09,"left",0,"30"
"S003","Perceptual",2,27.4175166666667,"1920x937",1.79904,60,"chrome","107.0.0","Windows 10","Ebbinghaus",2,10,"Ebbinghaus_perceptual_0000000_-0.24225",0,"Incongruent","-1",0.24225,"right",0,"39"
"S003","Perceptual",2,27.4175166666667,"1920x937",1.79904,60,"chrome","107.0.0","Windows 10","Ebbinghaus",2,11,"Ebbinghaus_perceptual_0000000_-0.15689",0,"Incongruent","-1",0.15689,"left",1,"50"
"S003","Perceptual",2,27.4175166666667,"1920x937",1.79904,60,"chrome","107.0.0","Windows 10","Ebbinghaus",2,12,"Ebbinghaus_perceptual_0000000_-0.11354",0,"Incongruent","-1",0.11354,"right",0,"175"
"S003","Perceptual",2,27.4175166666667,"1920x937",1.79904,60,"chrome","107.0.0","Windows 10","Ebbinghaus",2,13,"Ebbinghaus_perceptual_0000000_-0.09449",0,"Incongruent","-1",0.09449,"right",0,"111"
"S003","Perceptual",2,27.4175166666667,"1920x937",1.79904,60,"chrome","107.0.0","Windows 10","Ebbinghaus",2,14,"Ebbinghaus_perceptual_0000000_0.24225",0,"Incongruent","1",0.24225,"left",0,"41"
"S003","Perceptual",2,27.4175166666667,"1920x937",1.79904,60,"chrome","107.0.0","Windows 10","Ebbinghaus",2,15,"Ebbinghaus_perceptual_0000000_-0.22091",0,"Incongruent","-1",0.22091,"right",0,"132"
"S003","Perceptual",2,27.4175166666667,"1920x937",1.79904,60,"chrome","107.0.0","Windows 10","Ebbinghaus",2,16,"Ebbinghaus_perceptual_0000000_0.18754",0,"Incongruent","1",0.18754,"left",0,"159"
"S003","Perceptual",2,27.4175166666667,"1920x937",1.79904,60,"chrome","107.0.0","Windows 10","Ebbinghaus",2,17,"Ebbinghaus_perceptual_0000000_-0.27223",0,"Incongruent","-1",0.27223,"left",1,"84"
"S003","Perceptual",2,27.4175166666667,"1920x937",1.79904,60,"chrome","107.0.0","Windows 10","Ebbinghaus",2,18,"Ebbinghaus_perceptual_0000000_-0.19399",0,"Incongruent","-1",0.19399,"right",0,"34"
"S003","Perceptual",2,27.4175166666667,"1920x937",1.79904,60,"chrome","107.0.0","Windows 10","Ebbinghaus",2,19,"Ebbinghaus_perceptual_0000000_-0.16882",0,"Incongruent","-1",0.16882,"right",0,"109"
"S003","Perceptual",2,27.4175166666667,"1920x937",1.79904,60,"chrome","107.0.0","Windows 10","Ebbinghaus",2,20,"Ebbinghaus_perceptual_0000000_-0.12372",0,"Incongruent","-1",0.12372,"right",0,"59"
"S003","Perceptual",2,27.4175166666667,"1920x937",1.79904,60,"chrome","107.0.0","Windows 10","Ebbinghaus",2,21,"Ebbinghaus_perceptual_0000000_0.12898",0,"Incongruent","1",0.12898,"right",1,"82"
"S003","Perceptual",2,27.4175166666667,"1920x937",1.79904,60,"chrome","107.0.0","Windows 10","Ebbinghaus",2,22,"Ebbinghaus_perceptual_0000000_0.27223",0,"Incongruent","1",0.27223,"right",1,"47"
"S003","Perceptual",2,27.4175166666667,"1920x937",1.79904,60,"chrome","107.0.0","Windows 10","Ebbinghaus",2,23,"Ebbinghaus_perceptual_0000000_0.15109",0,"Incongruent","1",0.15109,"right",1,"62"
"S003","Perceptual",2,27.4175166666667,"1920x937",1.79904,60,"chrome","107.0.0","Windows 10","Ebbinghaus",2,24,"Ebbinghaus_perceptual_0000000_-0.1454",0,"Incongruent","-1",0.1454,"right",0,"109"
"S003","Perceptual",2,27.4175166666667,"1920x937",1.79904,60,"chrome","107.0.0","Windows 10","Ebbinghaus",2,25,"Ebbinghaus_perceptual_0000000_-0.22792",0,"Incongruent","-1",0.22792,"right",0,"153"
"S003","Perceptual",2,27.4175166666667,"1920x937",1.79904,60,"chrome","107.0.0","Windows 10","Ebbinghaus",2,26,"Ebbinghaus_perceptual_0000000_-0.18119",0,"Incongruent","-1",0.18119,"left",1,"144"
"S003","Perceptual",2,27.4175166666667,"1920x937",1.79904,60,"chrome","107.0.0","Windows 10","Ebbinghaus",2,27,"Ebbinghaus_perceptual_0000000_0.20056",0,"Incongruent","1",0.20056,"right",1,"12"
"S003","Perceptual",2,27.4175166666667,"1920x937",1.79904,60,"chrome","107.0.0","Windows 10","Ebbinghaus",2,28,"Ebbinghaus_perceptual_0000000_-0.20724",0,"Incongruent","-1",0.20724,"left",1,"157"
"S003","Perceptual",2,27.4175166666667,"1920x937",1.79904,60,"chrome","107.0.0","Windows 10","Ebbinghaus",2,29,"Ebbinghaus_perceptual_0000000_-0.1038",0,"Incongruent","-1",0.1038,"right",0,"199"
"S003","Perceptual",2,27.4175166666667,"1920x937",1.79904,60,"chrome","107.0.0","Windows 10","Ebbinghaus",2,30,"Ebbinghaus_perceptual_0000000_0.17495",0,"Incongruent","1",0.17495,"right",1,"18"
"S003","Perceptual",2,27.4175166666667,"1920x937",1.79904,60,"chrome","107.0.0","Windows 10","Ebbinghaus",2,31,"Ebbinghaus_perceptual_0000000_0.11858",0,"Incongruent","1",0.11858,"left",0,"19"
"S003","Perceptual",2,27.4175166666667,"1920x937",1.79904,60,"chrome","107.0.0","Windows 10","Ebbinghaus",2,32,"Ebbinghaus_perceptual_0000000_0.10861",0,"Incongruent","1",0.10861,"right",1,"92"
"S003","Perceptual",2,27.4175166666667,"1920x937",1.79904,60,"chrome","107.0.0","Windows 10","VerticalHorizontal",2,1,"VerticalHorizontal_0000000_0.18827",0,"Incongruent","1",0.18827,"left",0,"636"
"S003","Perceptual",2,27.4175166666667,"1920x937",1.79904,60,"chrome","107.0.0","Windows 10","VerticalHorizontal",2,2,"VerticalHorizontal_0000000_-0.06144",0,"Incongruent","-1",0.06144,"right",0,"4"
"S003","Perceptual",2,27.4175166666667,"1920x937",1.79904,60,"chrome","107.0.0","Windows 10","VerticalHorizontal",2,3,"VerticalHorizontal_0000000_0.20257",0,"Incongruent","1",0.20257,"right",1,"162"
"S003","Perceptual",2,27.4175166666667,"1920x937",1.79904,60,"chrome","107.0.0","Windows 10","VerticalHorizontal",2,4,"VerticalHorizontal_0000000_0.07406",0,"Incongruent","1",0.07406,"left",0,"144"
"S003","Perceptual",2,27.4175166666667,"1920x937",1.79904,60,"chrome","107.0.0","Windows 10","VerticalHorizontal",2,5,"VerticalHorizontal_0000000_0.09271",0,"Incongruent","1",0.09271,"right",1,"46"
"S003","Perceptual",2,27.4175166666667,"1920x937",1.79904,60,"chrome","107.0.0","Windows 10","VerticalHorizontal",2,6,"VerticalHorizontal_0000000_0.16124",0,"Incongruent","1",0.16124,"left",0,"38"
"S003","Perceptual",2,27.4175166666667,"1920x937",1.79904,60,"chrome","107.0.0","Windows 10","VerticalHorizontal",2,7,"VerticalHorizontal_0000000_-0.17449",0,"Incongruent","-1",0.17449,"left",1,"55"
"S003","Perceptual",2,27.4175166666667,"1920x937",1.79904,60,"chrome","107.0.0","Windows 10","VerticalHorizontal",2,8,"VerticalHorizontal_0000000_0.05000",0,"Incongruent","1",0.05,"right",1,"26"
"S003","Perceptual",2,27.4175166666667,"1920x937",1.79904,60,"chrome","107.0.0","Windows 10","VerticalHorizontal",2,9,"VerticalHorizontal_0000000_0.21739",0,"Incongruent","1",0.21739,"left",0,"70"
"S003","Perceptual",2,27.4175166666667,"1920x937",1.79904,60,"chrome","107.0.0","Windows 10","VerticalHorizontal",2,10,"VerticalHorizontal_0000000_-0.18827",0,"Incongruent","-1",0.18827,"right",0,"56"
"S003","Perceptual",2,27.4175166666667,"1920x937",1.79904,60,"chrome","107.0.0","Windows 10","VerticalHorizontal",2,11,"VerticalHorizontal_0000000_0.14851",0,"Incongruent","1",0.14851,"right",1,"63"
"S003","Perceptual",2,27.4175166666667,"1920x937",1.79904,60,"chrome","107.0.0","Windows 10","VerticalHorizontal",2,12,"VerticalHorizontal_0000000_-0.1678",0,"Incongruent","-1",0.1678,"right",0,"124"
"S003","Perceptual",2,27.4175166666667,"1920x937",1.79904,60,"chrome","107.0.0","Windows 10","VerticalHorizontal",2,13,"VerticalHorizontal_0000000_0.10283",0,"Incongruent","1",0.10283,"left",0,"58"
"S003","Perceptual",2,27.4175166666667,"1920x937",1.79904,60,"chrome","107.0.0","Windows 10","VerticalHorizontal",2,14,"VerticalHorizontal_0000000_0.12462",0,"Incongruent","1",0.12462,"right",1,"49"
"S003","Perceptual",2,27.4175166666667,"1920x937",1.79904,60,"chrome","107.0.0","Windows 10","VerticalHorizontal",2,15,"VerticalHorizontal_0000000_-0.07853",0,"Incongruent","-1",0.07853,"right",0,"90"
"S003","Perceptual",2,27.4175166666667,"1920x937",1.79904,60,"chrome","107.0.0","Windows 10","VerticalHorizontal",2,16,"VerticalHorizontal_0000000_-0.20257",0,"Incongruent","-1",0.20257,"left",1,"29"
"S003","Perceptual",2,27.4175166666667,"1920x937",1.79904,60,"chrome","107.0.0","Windows 10","VerticalHorizontal",2,17,"VerticalHorizontal_0000000_-0.05368",0,"Incongruent","-1",0.05368,"right",0,"87"
"S003","Perceptual",2,27.4175166666667,"1920x937",1.79904,60,"chrome","107.0.0","Windows 10","VerticalHorizontal",2,18,"VerticalHorizontal_0000000_-0.06972",0,"Incongruent","-1",0.06972,"right",0,"9"
"S003","Perceptual",2,27.4175166666667,"1920x937",1.79904,60,"chrome","107.0.0","Windows 10","VerticalHorizontal",2,19,"VerticalHorizontal_0000000_0.08312",0,"Incongruent","1",0.08312,"left",0,"63"
"S003","Perceptual",2,27.4175166666667,"1920x937",1.79904,60,"chrome","107.0.0","Windows 10","VerticalHorizontal",2,20,"VerticalHorizontal_0000000_0.06552",0,"Incongruent","1",0.06552,"left",0,"96"
"S003","Perceptual",2,27.4175166666667,"1920x937",1.79904,60,"chrome","107.0.0","Windows 10","VerticalHorizontal",2,21,"VerticalHorizontal_0000000_0.11346",0,"Incongruent","1",0.11346,"right",1,"166"
"S003","Perceptual",2,27.4175166666667,"1920x937",1.79904,60,"chrome","107.0.0","Windows 10","VerticalHorizontal",2,22,"VerticalHorizontal_0000000_0.17449",0,"Incongruent","1",0.17449,"left",0,"149"
"S003","Perceptual",2,27.4175166666667,"1920x937",1.79904,60,"chrome","107.0.0","Windows 10","VerticalHorizontal",2,23,"VerticalHorizontal_0000000_-0.14234",0,"Incongruent","-1",0.14234,"right",0,"5"
"S003","Perceptual",2,27.4175166666667,"1920x937",1.79904,60,"chrome","107.0.0","Windows 10","VerticalHorizontal",2,24,"VerticalHorizontal_0000000_0.05750",0,"Incongruent","1",0.0575,"left",0,"90"
"S003","Perceptual",2,27.4175166666667,"1920x937",1.79904,60,"chrome","107.0.0","Windows 10","VerticalHorizontal",2,25,"VerticalHorizontal_0000000_-0.10808",0,"Incongruent","-1",0.10808,"left",1,"38"
"S003","Perceptual",2,27.4175166666667,"1920x937",1.79904,60,"chrome","107.0.0","Windows 10","VerticalHorizontal",2,26,"VerticalHorizontal_0000000_-0.15481",0,"Incongruent","-1",0.15481,"right",0,"41"
"S003","Perceptual",2,27.4175166666667,"1920x937",1.79904,60,"chrome","107.0.0","Windows 10","VerticalHorizontal",2,27,"VerticalHorizontal_0000000_0.13630",0,"Incongruent","1",0.1363,"right",1,"23"
"S003","Perceptual",2,27.4175166666667,"1920x937",1.79904,60,"chrome","107.0.0","Windows 10","VerticalHorizontal",2,28,"VerticalHorizontal_0000000_-0.11898",0,"Incongruent","-1",0.11898,"right",0,"64"
"S003","Perceptual",2,27.4175166666667,"1920x937",1.79904,60,"chrome","107.0.0","Windows 10","VerticalHorizontal",2,29,"VerticalHorizontal_0000000_-0.21739",0,"Incongruent","-1",0.21739,"left",1,"40"
"S003","Perceptual",2,27.4175166666667,"1920x937",1.79904,60,"chrome","107.0.0","Windows 10","VerticalHorizontal",2,30,"VerticalHorizontal_0000000_-0.0977",0,"Incongruent","-1",0.0977,"right",0,"60"
"S003","Perceptual",2,27.4175166666667,"1920x937",1.79904,60,"chrome","107.0.0","Windows 10","VerticalHorizontal",2,31,"VerticalHorizontal_0000000_-0.08785",0,"Incongruent","-1",0.08785,"left",1,"101"
"S003","Perceptual",2,27.4175166666667,"1920x937",1.79904,60,"chrome","107.0.0","Windows 10","VerticalHorizontal",2,32,"VerticalHorizontal_0000000_-0.1304",0,"Incongruent","-1",0.1304,"left",1,"17"
"S002","Perceptual",1,38.99245,"1517x721",1.093757,61.58,"chrome","107.0.0","Windows 10","MullerLyer",1,1,"MullerLyer_perceptual_0000000_-0.10919",0,"Incongruent","-1",0.10919,"down",0,"670"
"S002","Perceptual",1,38.99245,"1517x721",1.093757,61.58,"chrome","107.0.0","Windows 10","MullerLyer",1,2,"MullerLyer_perceptual_0000000_0.23500",0,"Incongruent","1",0.235,"up",0,"504"
"S002","Perceptual",1,38.99245,"1517x721",1.093757,61.58,"chrome","107.0.0","Windows 10","MullerLyer",1,3,"MullerLyer_perceptual_0000000_0.07349",0,"Incongruent","1",0.07349,"down",1,"646"
"S002","Perceptual",1,38.99245,"1517x721",1.093757,61.58,"chrome","107.0.0","Windows 10","MullerLyer",1,4,"MullerLyer_perceptual_0000000_-0.05545",0,"Incongruent","-1",0.05545,"down",0,"615"
"S002","Perceptual",1,38.99245,"1517x721",1.093757,61.58,"chrome","107.0.0","Windows 10","MullerLyer",1,5,"MullerLyer_perceptual_0000000_-0.08007",0,"Incongruent","-1",0.08007,"down",0,"612"
"S002","Perceptual",1,38.99245,"1517x721",1.093757,61.58,"chrome","107.0.0","Windows 10","MullerLyer",1,6,"MullerLyer_perceptual_0000000_0.10149",0,"Incongruent","1",0.10149,"up",0,"1414"
"S002","Perceptual",1,38.99245,"1517x721",1.093757,61.58,"chrome","107.0.0","Windows 10","MullerLyer",1,7,"MullerLyer_perceptual_0000000_-0.33609",0,"Incongruent","-1",0.33609,"down",0,"785"
"S002","Perceptual",1,38.99245,"1517x721",1.093757,61.58,"chrome","107.0.0","Windows 10","MullerLyer",1,8,"MullerLyer_perceptual_0000000_0.19122",0,"Incongruent","1",0.19122,"up",0,"873"
"S002","Perceptual",1,38.99245,"1517x721",1.093757,61.58,"chrome","107.0.0","Windows 10","MullerLyer",1,9,"MullerLyer_perceptual_0000000_0.30913",0,"Incongruent","1",0.30913,"up",0,"694"
"S002","Perceptual",1,38.99245,"1517x721",1.093757,61.58,"chrome","107.0.0","Windows 10","MullerLyer",1,10,"MullerLyer_perceptual_0000000_0.21255",0,"Incongruent","1",0.21255,"up",0,"1100"
"S002","Perceptual",1,38.99245,"1517x721",1.093757,61.58,"chrome","107.0.0","Windows 10","MullerLyer",1,11,"MullerLyer_perceptual_0000000_0.15194",0,"Incongruent","1",0.15194,"up",0,"1335"
"S002","Perceptual",1,38.99245,"1517x721",1.093757,61.58,"chrome","107.0.0","Windows 10","MullerLyer",1,12,"MullerLyer_perceptual_0000000_-0.16134",0,"Incongruent","-1",0.16134,"down",0,"858"
"S002","Perceptual",1,38.99245,"1517x721",1.093757,61.58,"chrome","107.0.0","Windows 10","MullerLyer",1,13,"MullerLyer_perceptual_0000000_-0.06719",0,"Incongruent","-1",0.06719,"down",0,"798"
"S002","Perceptual",1,38.99245,"1517x721",1.093757,61.58,"chrome","107.0.0","Windows 10","MullerLyer",1,14,"MullerLyer_perceptual_0000000_-0.24665",0,"Incongruent","-1",0.24665,"down",0,"794"
"S002","Perceptual",1,38.99245,"1517x721",1.093757,61.58,"chrome","107.0.0","Windows 10","MullerLyer",1,15,"MullerLyer_perceptual_0000000_-0.25858",0,"Incongruent","-1",0.25858,"down",0,"634"
"S002","Perceptual",1,38.99245,"1517x721",1.093757,61.58,"chrome","107.0.0","Windows 10","MullerLyer",1,16,"MullerLyer_perceptual_0000000_0.25858",0,"Incongruent","1",0.25858,"up",0,"695"
"S002","Perceptual",1,38.99245,"1517x721",1.093757,61.58,"chrome","107.0.0","Windows 10","MullerLyer",1,17,"MullerLyer_perceptual_0000000_0.28329",0,"Incongruent","1",0.28329,"up",0,"846"
"S002","Perceptual",1,38.99245,"1517x721",1.093757,61.58,"chrome","107.0.0","Windows 10","MullerLyer",1,18,"MullerLyer_perceptual_0000000_0.05000",0,"Incongruent","1",0.05,"up",0,"1351"
"S002","Perceptual",1,38.99245,"1517x721",1.093757,61.58,"chrome","107.0.0","Windows 10","MullerLyer",1,19,"MullerLyer_perceptual_0000000_0.33609",0,"Incongruent","1",0.33609,"up",0,"643"
"S002","Perceptual",1,38.99245,"1517x721",1.093757,61.58,"chrome","107.0.0","Windows 10","MullerLyer",1,20,"MullerLyer_perceptual_0000000_-0.09407",0,"Incongruent","-1",0.09407,"down",0,"828"
"S002","Perceptual",1,38.99245,"1517x721",1.093757,61.58,"chrome","107.0.0","Windows 10","MullerLyer",1,21,"MullerLyer_perceptual_0000000_0.06118",0,"Incongruent","1",0.06118,"up",0,"2069"
"S002","Perceptual",1,38.99245,"1517x721",1.093757,61.58,"chrome","107.0.0","Windows 10","MullerLyer",1,22,"MullerLyer_perceptual_0000000_-0.20174",0,"Incongruent","-1",0.20174,"down",0,"713"
"S002","Perceptual",1,38.99245,"1517x721",1.093757,61.58,"chrome","107.0.0","Windows 10","MullerLyer",1,23,"MullerLyer_perceptual_0000000_-0.28329",0,"Incongruent","-1",0.28329,"down",0,"631"
"S002","Perceptual",1,38.99245,"1517x721",1.093757,61.58,"chrome","107.0.0","Windows 10","MullerLyer",1,24,"MullerLyer_perceptual_0000000_0.08693",0,"Incongruent","1",0.08693,"up",0,"957"
"S002","Perceptual",1,38.99245,"1517x721",1.093757,61.58,"chrome","107.0.0","Windows 10","MullerLyer",1,25,"MullerLyer_perceptual_0000000_-0.12545",0,"Incongruent","-1",0.12545,"down",0,"1048"
"S002","Perceptual",1,38.99245,"1517x721",1.093757,61.58,"chrome","107.0.0","Windows 10","MullerLyer",1,26,"MullerLyer_perceptual_0000000_0.17102",0,"Incongruent","1",0.17102,"up",0,"866"
"S002","Perceptual",1,38.99245,"1517x721",1.093757,61.58,"chrome","107.0.0","Windows 10","MullerLyer",1,27,"MullerLyer_perceptual_0000000_-0.22363",0,"Incongruent","-1",0.22363,"down",0,"1140"
"S002","Perceptual",1,38.99245,"1517x721",1.093757,61.58,"chrome","107.0.0","Windows 10","MullerLyer",1,28,"MullerLyer_perceptual_0000000_-0.30913",0,"Incongruent","-1",0.30913,"down",0,"606"
"S002","Perceptual",1,38.99245,"1517x721",1.093757,61.58,"chrome","107.0.0","Windows 10","MullerLyer",1,29,"MullerLyer_perceptual_0000000_0.13400",0,"Incongruent","1",0.134,"up",0,"832"
"S002","Perceptual",1,38.99245,"1517x721",1.093757,61.58,"chrome","107.0.0","Windows 10","MullerLyer",1,30,"MullerLyer_perceptual_0000000_-0.18098",0,"Incongruent","-1",0.18098,"down",0,"1078"
"S002","Perceptual",1,38.99245,"1517x721",1.093757,61.58,"chrome","107.0.0","Windows 10","MullerLyer",1,31,"MullerLyer_perceptual_0000000_-0.14283",0,"Incongruent","-1",0.14283,"down",0,"998"
"S002","Perceptual",1,38.99245,"1517x721",1.093757,61.58,"chrome","107.0.0","Windows 10","MullerLyer",1,32,"MullerLyer_perceptual_0000000_0.11718",0,"Incongruent","1",0.11718,"up",0,"956"
"S002","Perceptual",1,38.99245,"1517x721",1.093757,61.58,"chrome","107.0.0","Windows 10","Ebbinghaus",1,1,"Ebbinghaus_perceptual_0000000_0.18754",0,"Incongruent","1",0.18754,"left",0,"1136"
"S002","Perceptual",1,38.99245,"1517x721",1.093757,61.58,"chrome","107.0.0","Windows 10","Ebbinghaus",1,2,"Ebbinghaus_perceptual_0000000_0.24225",0,"Incongruent","1",0.24225,"left",0,"453"
"S002","Perceptual",1,38.99245,"1517x721",1.093757,61.58,"chrome","107.0.0","Windows 10","Ebbinghaus",1,3,"Ebbinghaus_perceptual_0000000_0.21402",0,"Incongruent","1",0.21402,"left",0,"647"
"S002","Perceptual",1,38.99245,"1517x721",1.093757,61.58,"chrome","107.0.0","Windows 10","Ebbinghaus",1,4,"Ebbinghaus_perceptual_0000000_-0.12372",0,"Incongruent","-1",0.12372,"right",0,"810"
"S002","Perceptual",1,38.99245,"1517x721",1.093757,61.58,"chrome","107.0.0","Windows 10","Ebbinghaus",1,5,"Ebbinghaus_perceptual_0000000_-0.20724",0,"Incongruent","-1",0.20724,"right",0,"903"
"S002","Perceptual",1,38.99245,"1517x721",1.093757,61.58,"chrome","107.0.0","Windows 10","Ebbinghaus",1,6,"Ebbinghaus_perceptual_0000000_-0.25702",0,"Incongruent","-1",0.25702,"right",0,"804"
"S002","Perceptual",1,38.99245,"1517x721",1.093757,61.58,"chrome","107.0.0","Windows 10","Ebbinghaus",1,7,"Ebbinghaus_perceptual_0000000_0.22792",0,"Incongruent","1",0.22792,"left",0,"740"
"S002","Perceptual",1,38.99245,"1517x721",1.093757,61.58,"chrome","107.0.0","Windows 10","Ebbinghaus",1,8,"Ebbinghaus_perceptual_0000000_-0.1038",0,"Incongruent","-1",0.1038,"right",0,"835"
"S002","Perceptual",1,38.99245,"1517x721",1.093757,61.58,"chrome","107.0.0","Windows 10","Ebbinghaus",1,9,"Ebbinghaus_perceptual_0000000_-0.22792",0,"Incongruent","-1",0.22792,"right",0,"757"
"S002","Perceptual",1,38.99245,"1517x721",1.093757,61.58,"chrome","107.0.0","Windows 10","Ebbinghaus",1,10,"Ebbinghaus_perceptual_0000000_0.13982",0,"Incongruent","1",0.13982,"left",0,"703"
"S002","Perceptual",1,38.99245,"1517x721",1.093757,61.58,"chrome","107.0.0","Windows 10","Ebbinghaus",1,11,"Ebbinghaus_perceptual_0000000_0.25702",0,"Incongruent","1",0.25702,"left",0,"712"
"S002","Perceptual",1,38.99245,"1517x721",1.093757,61.58,"chrome","107.0.0","Windows 10","Ebbinghaus",1,12,"Ebbinghaus_perceptual_0000000_0.12898",0,"Incongruent","1",0.12898,"right",1,"532"
"S002","Perceptual",1,38.99245,"1517x721",1.093757,61.58,"chrome","107.0.0","Windows 10","Ebbinghaus",1,13,"Ebbinghaus_perceptual_0000000_-0.15689",0,"Incongruent","-1",0.15689,"right",0,"743"
"S002","Perceptual",1,38.99245,"1517x721",1.093757,61.58,"chrome","107.0.0","Windows 10","Ebbinghaus",1,14,"Ebbinghaus_perceptual_0000000_-0.24225",0,"Incongruent","-1",0.24225,"right",0,"1010"
"S002","Perceptual",1,38.99245,"1517x721",1.093757,61.58,"chrome","107.0.0","Windows 10","Ebbinghaus",1,15,"Ebbinghaus_perceptual_0000000_0.09000",0,"Incongruent","1",0.09,"left",0,"1082"
"S002","Perceptual",1,38.99245,"1517x721",1.093757,61.58,"chrome","107.0.0","Windows 10","Ebbinghaus",1,16,"Ebbinghaus_perceptual_0000000_0.20056",0,"Incongruent","1",0.20056,"left",0,"628"
"S002","Perceptual",1,38.99245,"1517x721",1.093757,61.58,"chrome","107.0.0","Windows 10","Ebbinghaus",1,17,"Ebbinghaus_perceptual_0000000_0.17495",0,"Incongruent","1",0.17495,"right",1,"997"
"S002","Perceptual",1,38.99245,"1517x721",1.093757,61.58,"chrome","107.0.0","Windows 10","Ebbinghaus",1,18,"Ebbinghaus_perceptual_0000000_0.15109",0,"Incongruent","1",0.15109,"right",1,"824"
"S002","Perceptual",1,38.99245,"1517x721",1.093757,61.58,"chrome","107.0.0","Windows 10","Ebbinghaus",1,19,"Ebbinghaus_perceptual_0000000_-0.09449",0,"Incongruent","-1",0.09449,"right",0,"662"
"S002","Perceptual",1,38.99245,"1517x721",1.093757,61.58,"chrome","107.0.0","Windows 10","Ebbinghaus",1,20,"Ebbinghaus_perceptual_0000000_0.27223",0,"Incongruent","1",0.27223,"left",0,"1204"
"S002","Perceptual",1,38.99245,"1517x721",1.093757,61.58,"chrome","107.0.0","Windows 10","Ebbinghaus",1,21,"Ebbinghaus_perceptual_0000000_-0.13434",0,"Incongruent","-1",0.13434,"right",0,"775"
"S002","Perceptual",1,38.99245,"1517x721",1.093757,61.58,"chrome","107.0.0","Windows 10","Ebbinghaus",1,22,"Ebbinghaus_perceptual_0000000_-0.27223",0,"Incongruent","-1",0.27223,"right",0,"726"
"S002","Perceptual",1,38.99245,"1517x721",1.093757,61.58,"chrome","107.0.0","Windows 10","Ebbinghaus",1,23,"Ebbinghaus_perceptual_0000000_-0.19399",0,"Incongruent","-1",0.19399,"right",0,"707"
"S002","Perceptual",1,38.99245,"1517x721",1.093757,61.58,"chrome","107.0.0","Windows 10","Ebbinghaus",1,24,"Ebbinghaus_perceptual_0000000_-0.18119",0,"Incongruent","-1",0.18119,"right",0,"785"
"S002","Perceptual",1,38.99245,"1517x721",1.093757,61.58,"chrome","107.0.0","Windows 10","Ebbinghaus",1,25,"Ebbinghaus_perceptual_0000000_-0.11354",0,"Incongruent","-1",0.11354,"right",0,"639"
"S002","Perceptual",1,38.99245,"1517x721",1.093757,61.58,"chrome","107.0.0","Windows 10","Ebbinghaus",1,26,"Ebbinghaus_perceptual_0000000_0.11858",0,"Incongruent","1",0.11858,"right",1,"932"
"S002","Perceptual",1,38.99245,"1517x721",1.093757,61.58,"chrome","107.0.0","Windows 10","Ebbinghaus",1,27,"Ebbinghaus_perceptual_0000000_0.09909",0,"Incongruent","1",0.09909,"left",0,"773"
"S002","Perceptual",1,38.99245,"1517x721",1.093757,61.58,"chrome","107.0.0","Windows 10","Ebbinghaus",1,28,"Ebbinghaus_perceptual_0000000_0.10861",0,"Incongruent","1",0.10861,"left",0,"1556"
"S002","Perceptual",1,38.99245,"1517x721",1.093757,61.58,"chrome","107.0.0","Windows 10","Ebbinghaus",1,29,"Ebbinghaus_perceptual_0000000_-0.16882",0,"Incongruent","-1",0.16882,"right",0,"881"
"S002","Perceptual",1,38.99245,"1517x721",1.093757,61.58,"chrome","107.0.0","Windows 10","Ebbinghaus",1,30,"Ebbinghaus_perceptual_0000000_0.16280",0,"Incongruent","1",0.1628,"left",0,"957"
"S002","Perceptual",1,38.99245,"1517x721",1.093757,61.58,"chrome","107.0.0","Windows 10","Ebbinghaus",1,31,"Ebbinghaus_perceptual_0000000_-0.1454",0,"Incongruent","-1",0.1454,"right",0,"894"
"S002","Perceptual",1,38.99245,"1517x721",1.093757,61.58,"chrome","107.0.0","Windows 10","Ebbinghaus",1,32,"Ebbinghaus_perceptual_0000000_-0.22091",0,"Incongruent","-1",0.22091,"right",0,"626"
"S002","Perceptual",1,38.99245,"1517x721",1.093757,61.58,"chrome","107.0.0","Windows 10","VerticalHorizontal",1,1,"VerticalHorizontal_0000000_-0.18827",0,"Incongruent","-1",0.18827,"right",0,"683"
"S002","Perceptual",1,38.99245,"1517x721",1.093757,61.58,"chrome","107.0.0","Windows 10","VerticalHorizontal",1,2,"VerticalHorizontal_0000000_0.21739",0,"Incongruent","1",0.21739,"left",0,"852"
"S002","Perceptual",1,38.99245,"1517x721",1.093757,61.58,"chrome","107.0.0","Windows 10","VerticalHorizontal",1,3,"VerticalHorizontal_0000000_0.09271",0,"Incongruent","1",0.09271,"left",0,"654"
"S002","Perceptual",1,38.99245,"1517x721",1.093757,61.58,"chrome","107.0.0","Windows 10","VerticalHorizontal",1,4,"VerticalHorizontal_0000000_0.05000",0,"Incongruent","1",0.05,"left",0,"1252"
"S002","Perceptual",1,38.99245,"1517x721",1.093757,61.58,"chrome","107.0.0","Windows 10","VerticalHorizontal",1,5,"VerticalHorizontal_0000000_0.18827",0,"Incongruent","1",0.18827,"left",0,"781"
"S002","Perceptual",1,38.99245,"1517x721",1.093757,61.58,"chrome","107.0.0","Windows 10","VerticalHorizontal",1,6,"VerticalHorizontal_0000000_-0.0977",0,"Incongruent","-1",0.0977,"right",0,"592"
"S002","Perceptual",1,38.99245,"1517x721",1.093757,61.58,"chrome","107.0.0","Windows 10","VerticalHorizontal",1,7,"VerticalHorizontal_0000000_-0.11898",0,"Incongruent","-1",0.11898,"right",0,"594"
"S002","Perceptual",1,38.99245,"1517x721",1.093757,61.58,"chrome","107.0.0","Windows 10","VerticalHorizontal",1,8,"VerticalHorizontal_0000000_0.17449",0,"Incongruent","1",0.17449,"left",0,"1131"
"S002","Perceptual",1,38.99245,"1517x721",1.093757,61.58,"chrome","107.0.0","Windows 10","VerticalHorizontal",1,9,"VerticalHorizontal_0000000_0.12462",0,"Incongruent","1",0.12462,"left",0,"618"
"S002","Perceptual",1,38.99245,"1517x721",1.093757,61.58,"chrome","107.0.0","Windows 10","VerticalHorizontal",1,10,"VerticalHorizontal_0000000_-0.10808",0,"Incongruent","-1",0.10808,"right",0,"660"
"S002","Perceptual",1,38.99245,"1517x721",1.093757,61.58,"chrome","107.0.0","Windows 10","VerticalHorizontal",1,11,"VerticalHorizontal_0000000_-0.14234",0,"Incongruent","-1",0.14234,"right",0,"529"
"S002","Perceptual",1,38.99245,"1517x721",1.093757,61.58,"chrome","107.0.0","Windows 10","VerticalHorizontal",1,12,"VerticalHorizontal_0000000_-0.17449",0,"Incongruent","-1",0.17449,"right",0,"787"
"S002","Perceptual",1,38.99245,"1517x721",1.093757,61.58,"chrome","107.0.0","Windows 10","VerticalHorizontal",1,13,"VerticalHorizontal_0000000_-0.15481",0,"Incongruent","-1",0.15481,"right",0,"1126"
"S002","Perceptual",1,38.99245,"1517x721",1.093757,61.58,"chrome","107.0.0","Windows 10","VerticalHorizontal",1,14,"VerticalHorizontal_0000000_0.20257",0,"Incongruent","1",0.20257,"left",0,"648"
"S002","Perceptual",1,38.99245,"1517x721",1.093757,61.58,"chrome","107.0.0","Windows 10","VerticalHorizontal",1,15,"VerticalHorizontal_0000000_0.11346",0,"Incongruent","1",0.11346,"left",0,"717"
"S002","Perceptual",1,38.99245,"1517x721",1.093757,61.58,"chrome","107.0.0","Windows 10","VerticalHorizontal",1,16,"VerticalHorizontal_0000000_-0.20257",0,"Incongruent","-1",0.20257,"right",0,"570"
"S002","Perceptual",1,38.99245,"1517x721",1.093757,61.58,"chrome","107.0.0","Windows 10","VerticalHorizontal",1,17,"VerticalHorizontal_0000000_-0.05368",0,"Incongruent","-1",0.05368,"right",0,"1068"
"S002","Perceptual",1,38.99245,"1517x721",1.093757,61.58,"chrome","107.0.0","Windows 10","VerticalHorizontal",1,18,"VerticalHorizontal_0000000_-0.06972",0,"Incongruent","-1",0.06972,"right",0,"617"
"S002","Perceptual",1,38.99245,"1517x721",1.093757,61.58,"chrome","107.0.0","Windows 10","VerticalHorizontal",1,19,"VerticalHorizontal_0000000_-0.08785",0,"Incongruent","-1",0.08785,"left",1,"1235"
"S002","Perceptual",1,38.99245,"1517x721",1.093757,61.58,"chrome","107.0.0","Windows 10","VerticalHorizontal",1,20,"VerticalHorizontal_0000000_0.13630",0,"Incongruent","1",0.1363,"left",0,"606"
"S002","Perceptual",1,38.99245,"1517x721",1.093757,61.58,"chrome","107.0.0","Windows 10","VerticalHorizontal",1,21,"VerticalHorizontal_0000000_-0.07853",0,"Incongruent","-1",0.07853,"right",0,"635"
"S002","Perceptual",1,38.99245,"1517x721",1.093757,61.58,"chrome","107.0.0","Windows 10","VerticalHorizontal",1,22,"VerticalHorizontal_0000000_-0.1304",0,"Incongruent","-1",0.1304,"right",0,"697"
"S002","Perceptual",1,38.99245,"1517x721",1.093757,61.58,"chrome","107.0.0","Windows 10","VerticalHorizontal",1,23,"VerticalHorizontal_0000000_0.14851",0,"Incongruent","1",0.14851,"left",0,"843"
"S002","Perceptual",1,38.99245,"1517x721",1.093757,61.58,"chrome","107.0.0","Windows 10","VerticalHorizontal",1,24,"VerticalHorizontal_0000000_-0.06144",0,"Incongruent","-1",0.06144,"right",0,"579"
"S002","Perceptual",1,38.99245,"1517x721",1.093757,61.58,"chrome","107.0.0","Windows 10","VerticalHorizontal",1,25,"VerticalHorizontal_0000000_0.08312",0,"Incongruent","1",0.08312,"right",1,"1218"
"S002","Perceptual",1,38.99245,"1517x721",1.093757,61.58,"chrome","107.0.0","Windows 10","VerticalHorizontal",1,26,"VerticalHorizontal_0000000_0.07406",0,"Incongruent","1",0.07406,"right",1,"1097"
"S002","Perceptual",1,38.99245,"1517x721",1.093757,61.58,"chrome","107.0.0","Windows 10","VerticalHorizontal",1,27,"VerticalHorizontal_0000000_-0.21739",0,"Incongruent","-1",0.21739,"right",0,"789"
"S002","Perceptual",1,38.99245,"1517x721",1.093757,61.58,"chrome","107.0.0","Windows 10","VerticalHorizontal",1,28,"VerticalHorizontal_0000000_0.06552",0,"Incongruent","1",0.06552,"right",1,"741"
"S002","Perceptual",1,38.99245,"1517x721",1.093757,61.58,"chrome","107.0.0","Windows 10","VerticalHorizontal",1,29,"VerticalHorizontal_0000000_0.05750",0,"Incongruent","1",0.0575,"right",1,"730"
"S002","Perceptual",1,38.99245,"1517x721",1.093757,61.58,"chrome","107.0.0","Windows 10","VerticalHorizontal",1,30,"VerticalHorizontal_0000000_0.10283",0,"Incongruent","1",0.10283,"left",0,"1333"
"S002","Perceptual",1,38.99245,"1517x721",1.093757,61.58,"chrome","107.0.0","Windows 10","VerticalHorizontal",1,31,"VerticalHorizontal_0000000_0.16124",0,"Incongruent","1",0.16124,"right",1,"635"
"S002","Perceptual",1,38.99245,"1517x721",1.093757,61.58,"chrome","107.0.0","Windows 10","VerticalHorizontal",1,32,"VerticalHorizontal_0000000_-0.1678",0,"Incongruent","-1",0.1678,"right",0,"685"
"S002","Perceptual",1,38.99245,"1517x721",1.093757,61.58,"chrome","107.0.0","Windows 10","MullerLyer",2,1,"MullerLyer_perceptual_0000000_0.29607",0,"Incongruent","1",0.29607,"up",0,"773"
"S002","Perceptual",1,38.99245,"1517x721",1.093757,61.58,"chrome","107.0.0","Windows 10","MullerLyer",2,2,"MullerLyer_perceptual_0000000_0.27080",0,"Incongruent","1",0.2708,"up",0,"834"
"S002","Perceptual",1,38.99245,"1517x721",1.093757,61.58,"chrome","107.0.0","Windows 10","MullerLyer",2,3,"MullerLyer_perceptual_0000000_0.08007",0,"Incongruent","1",0.08007,"up",0,"1823"
"S002","Perceptual",1,38.99245,"1517x721",1.093757,61.58,"chrome","107.0.0","Windows 10","MullerLyer",2,4,"MullerLyer_perceptual_0000000_0.32247",0,"Incongruent","1",0.32247,"up",0,"705"
"S002","Perceptual",1,38.99245,"1517x721",1.093757,61.58,"chrome","107.0.0","Windows 10","MullerLyer",2,5,"MullerLyer_perceptual_0000000_0.35000",0,"Incongruent","1",0.35,"up",0,"604"
"S002","Perceptual",1,38.99245,"1517x721",1.093757,61.58,"chrome","107.0.0","Windows 10","MullerLyer",2,6,"MullerLyer_perceptual_0000000_-0.21255",0,"Incongruent","-1",0.21255,"down",0,"579"
"S002","Perceptual",1,38.99245,"1517x721",1.093757,61.58,"chrome","107.0.0","Windows 10","MullerLyer",2,7,"MullerLyer_perceptual_0000000_0.10919",0,"Incongruent","1",0.10919,"up",0,"690"
"S002","Perceptual",1,38.99245,"1517x721",1.093757,61.58,"chrome","107.0.0","Windows 10","MullerLyer",2,8,"MullerLyer_perceptual_0000000_-0.32247",0,"Incongruent","-1",0.32247,"down",0,"609"
"S002","Perceptual",1,38.99245,"1517x721",1.093757,61.58,"chrome","107.0.0","Windows 10","MullerLyer",2,9,"MullerLyer_perceptual_0000000_0.06719",0,"Incongruent","1",0.06719,"up",0,"756"
"S002","Perceptual",1,38.99245,"1517x721",1.093757,61.58,"chrome","107.0.0","Windows 10","MullerLyer",2,10,"MullerLyer_perceptual_0000000_0.20174",0,"Incongruent","1",0.20174,"up",0,"877"
"S002","Perceptual",1,38.99245,"1517x721",1.093757,61.58,"chrome","107.0.0","Windows 10","MullerLyer",2,11,"MullerLyer_perceptual_0000000_-0.1340",0,"Incongruent","-1",0.134,"down",0,"1296"
"S002","Perceptual",1,38.99245,"1517x721",1.093757,61.58,"chrome","107.0.0","Windows 10","MullerLyer",2,12,"MullerLyer_perceptual_0000000_-0.2708",0,"Incongruent","-1",0.2708,"down",0,"560"
"S002","Perceptual",1,38.99245,"1517x721",1.093757,61.58,"chrome","107.0.0","Windows 10","MullerLyer",2,13,"MullerLyer_perceptual_0000000_0.09407",0,"Incongruent","1",0.09407,"down",1,"1076"
"S002","Perceptual",1,38.99245,"1517x721",1.093757,61.58,"chrome","107.0.0","Windows 10","MullerLyer",2,14,"MullerLyer_perceptual_0000000_-0.0500",0,"Incongruent","-1",0.05,"down",0,"803"
"S002","Perceptual",1,38.99245,"1517x721",1.093757,61.58,"chrome","107.0.0","Windows 10","MullerLyer",2,15,"MullerLyer_perceptual_0000000_0.05545",0,"Incongruent","1",0.05545,"up",0,"1316"
"S002","Perceptual",1,38.99245,"1517x721",1.093757,61.58,"chrome","107.0.0","Windows 10","MullerLyer",2,16,"MullerLyer_perceptual_0000000_-0.29607",0,"Incongruent","-1",0.29607,"down",0,"645"
"S002","Perceptual",1,38.99245,"1517x721",1.093757,61.58,"chrome","107.0.0","Windows 10","MullerLyer",2,17,"MullerLyer_perceptual_0000000_0.24665",0,"Incongruent","1",0.24665,"up",0,"630"
"S002","Perceptual",1,38.99245,"1517x721",1.093757,61.58,"chrome","107.0.0","Windows 10","MullerLyer",2,18,"MullerLyer_perceptual_0000000_-0.11718",0,"Incongruent","-1",0.11718,"down",0,"779"
"S002","Perceptual",1,38.99245,"1517x721",1.093757,61.58,"chrome","107.0.0","Windows 10","MullerLyer",2,19,"MullerLyer_perceptual_0000000_-0.2350",0,"Incongruent","-1",0.235,"down",0,"1342"
"S002","Perceptual",1,38.99245,"1517x721",1.093757,61.58,"chrome","107.0.0","Windows 10","MullerLyer",2,20,"MullerLyer_perceptual_0000000_0.16134",0,"Incongruent","1",0.16134,"up",0,"1264"
"S002","Perceptual",1,38.99245,"1517x721",1.093757,61.58,"chrome","107.0.0","Windows 10","MullerLyer",2,21,"MullerLyer_perceptual_0000000_0.22363",0,"Incongruent","1",0.22363,"up",0,"948"
"S002","Perceptual",1,38.99245,"1517x721",1.093757,61.58,"chrome","107.0.0","Windows 10","MullerLyer",2,22,"MullerLyer_perceptual_0000000_0.18098",0,"Incongruent","1",0.18098,"up",0,"972"
"S002","Perceptual",1,38.99245,"1517x721",1.093757,61.58,"chrome","107.0.0","Windows 10","MullerLyer",2,23,"MullerLyer_perceptual_0000000_-0.3500",0,"Incongruent","-1",0.35,"down",0,"554"
"S002","Perceptual",1,38.99245,"1517x721",1.093757,61.58,"chrome","107.0.0","Windows 10","MullerLyer",2,24,"MullerLyer_perceptual_0000000_-0.06118",0,"Incongruent","-1",0.06118,"down",0,"1249"
"S002","Perceptual",1,38.99245,"1517x721",1.093757,61.58,"chrome","107.0.0","Windows 10","MullerLyer",2,25,"MullerLyer_perceptual_0000000_-0.08693",0,"Incongruent","-1",0.08693,"down",0,"897"
"S002","Perceptual",1,38.99245,"1517x721",1.093757,61.58,"chrome","107.0.0","Windows 10","MullerLyer",2,26,"MullerLyer_perceptual_0000000_-0.15194",0,"Incongruent","-1",0.15194,"down",0,"809"
"S002","Perceptual",1,38.99245,"1517x721",1.093757,61.58,"chrome","107.0.0","Windows 10","MullerLyer",2,27,"MullerLyer_perceptual_0000000_-0.19122",0,"Incongruent","-1",0.19122,"down",0,"546"
"S002","Perceptual",1,38.99245,"1517x721",1.093757,61.58,"chrome","107.0.0","Windows 10","MullerLyer",2,28,"MullerLyer_perceptual_0000000_-0.10149",0,"Incongruent","-1",0.10149,"down",0,"997"
"S002","Perceptual",1,38.99245,"1517x721",1.093757,61.58,"chrome","107.0.0","Windows 10","MullerLyer",2,29,"MullerLyer_perceptual_0000000_-0.17102",0,"Incongruent","-1",0.17102,"down",0,"892"
"S002","Perceptual",1,38.99245,"1517x721",1.093757,61.58,"chrome","107.0.0","Windows 10","MullerLyer",2,30,"MullerLyer_perceptual_0000000_-0.07349",0,"Incongruent","-1",0.07349,"up",1,"594"
"S002","Perceptual",1,38.99245,"1517x721",1.093757,61.58,"chrome","107.0.0","Windows 10","MullerLyer",2,31,"MullerLyer_perceptual_0000000_0.12545",0,"Incongruent","1",0.12545,"down",1,"876"
"S002","Perceptual",1,38.99245,"1517x721",1.093757,61.58,"chrome","107.0.0","Windows 10","MullerLyer",2,32,"MullerLyer_perceptual_0000000_0.14283",0,"Incongruent","1",0.14283,"up",0,"986"
"S002","Perceptual",1,38.99245,"1517x721",1.093757,61.58,"chrome","107.0.0","Windows 10","Ebbinghaus",2,1,"Ebbinghaus_perceptual_0000000_0.13434",0,"Incongruent","1",0.13434,"left",0,"648"
"S002","Perceptual",1,38.99245,"1517x721",1.093757,61.58,"chrome","107.0.0","Windows 10","Ebbinghaus",2,2,"Ebbinghaus_perceptual_0000000_0.18119",0,"Incongruent","1",0.18119,"right",1,"896"
"S002","Perceptual",1,38.99245,"1517x721",1.093757,61.58,"chrome","107.0.0","Windows 10","Ebbinghaus",2,3,"Ebbinghaus_perceptual_0000000_0.16882",0,"Incongruent","1",0.16882,"left",0,"756"
"S002","Perceptual",1,38.99245,"1517x721",1.093757,61.58,"chrome","107.0.0","Windows 10","Ebbinghaus",2,4,"Ebbinghaus_perceptual_0000000_0.19399",0,"Incongruent","1",0.19399,"left",0,"681"
"S002","Perceptual",1,38.99245,"1517x721",1.093757,61.58,"chrome","107.0.0","Windows 10","Ebbinghaus",2,5,"Ebbinghaus_perceptual_0000000_-0.18754",0,"Incongruent","-1",0.18754,"right",0,"888"
"S002","Perceptual",1,38.99245,"1517x721",1.093757,61.58,"chrome","107.0.0","Windows 10","Ebbinghaus",2,6,"Ebbinghaus_perceptual_0000000_-0.2800",0,"Incongruent","-1",0.28,"right",0,"497"
"S002","Perceptual",1,38.99245,"1517x721",1.093757,61.58,"chrome","107.0.0","Windows 10","Ebbinghaus",2,7,"Ebbinghaus_perceptual_0000000_0.22091",0,"Incongruent","1",0.22091,"left",0,"1541"
"S002","Perceptual",1,38.99245,"1517x721",1.093757,61.58,"chrome","107.0.0","Windows 10","Ebbinghaus",2,8,"Ebbinghaus_perceptual_0000000_0.20724",0,"Incongruent","1",0.20724,"left",0,"1838"
"S002","Perceptual",1,38.99245,"1517x721",1.093757,61.58,"chrome","107.0.0","Windows 10","Ebbinghaus",2,9,"Ebbinghaus_perceptual_0000000_-0.17495",0,"Incongruent","-1",0.17495,"right",0,"827"
"S002","Perceptual",1,38.99245,"1517x721",1.093757,61.58,"chrome","107.0.0","Windows 10","Ebbinghaus",2,10,"Ebbinghaus_perceptual_0000000_0.15689",0,"Incongruent","1",0.15689,"right",1,"632"
"S002","Perceptual",1,38.99245,"1517x721",1.093757,61.58,"chrome","107.0.0","Windows 10","Ebbinghaus",2,11,"Ebbinghaus_perceptual_0000000_0.14540",0,"Incongruent","1",0.1454,"right",1,"1001"
"S002","Perceptual",1,38.99245,"1517x721",1.093757,61.58,"chrome","107.0.0","Windows 10","Ebbinghaus",2,12,"Ebbinghaus_perceptual_0000000_-0.11858",0,"Incongruent","-1",0.11858,"right",0,"778"
"S002","Perceptual",1,38.99245,"1517x721",1.093757,61.58,"chrome","107.0.0","Windows 10","Ebbinghaus",2,13,"Ebbinghaus_perceptual_0000000_-0.15109",0,"Incongruent","-1",0.15109,"right",0,"748"
"S002","Perceptual",1,38.99245,"1517x721",1.093757,61.58,"chrome","107.0.0","Windows 10","Ebbinghaus",2,14,"Ebbinghaus_perceptual_0000000_0.11354",0,"Incongruent","1",0.11354,"left",0,"630"
"S002","Perceptual",1,38.99245,"1517x721",1.093757,61.58,"chrome","107.0.0","Windows 10","Ebbinghaus",2,15,"Ebbinghaus_perceptual_0000000_0.28000",0,"Incongruent","1",0.28,"left",0,"712"
"S002","Perceptual",1,38.99245,"1517x721",1.093757,61.58,"chrome","107.0.0","Windows 10","Ebbinghaus",2,16,"Ebbinghaus_perceptual_0000000_0.26457",0,"Incongruent","1",0.26457,"left",0,"1356"
"S002","Perceptual",1,38.99245,"1517x721",1.093757,61.58,"chrome","107.0.0","Windows 10","Ebbinghaus",2,17,"Ebbinghaus_perceptual_0000000_-0.0900",0,"Incongruent","-1",0.09,"right",0,"1623"
"S002","Perceptual",1,38.99245,"1517x721",1.093757,61.58,"chrome","107.0.0","Windows 10","Ebbinghaus",2,18,"Ebbinghaus_perceptual_0000000_0.10380",0,"Incongruent","1",0.1038,"right",1,"1014"
"S002","Perceptual",1,38.99245,"1517x721",1.093757,61.58,"chrome","107.0.0","Windows 10","Ebbinghaus",2,19,"Ebbinghaus_perceptual_0000000_-0.09909",0,"Incongruent","-1",0.09909,"right",0,"592"
"S002","Perceptual",1,38.99245,"1517x721",1.093757,61.58,"chrome","107.0.0","Windows 10","Ebbinghaus",2,20,"Ebbinghaus_perceptual_0000000_-0.20056",0,"Incongruent","-1",0.20056,"right",0,"597"
"S002","Perceptual",1,38.99245,"1517x721",1.093757,61.58,"chrome","107.0.0","Windows 10","Ebbinghaus",2,21,"Ebbinghaus_perceptual_0000000_0.12372",0,"Incongruent","1",0.12372,"left",0,"738"
"S002","Perceptual",1,38.99245,"1517x721",1.093757,61.58,"chrome","107.0.0","Windows 10","Ebbinghaus",2,22,"Ebbinghaus_perceptual_0000000_-0.1628",0,"Incongruent","-1",0.1628,"right",0,"713"
"S002","Perceptual",1,38.99245,"1517x721",1.093757,61.58,"chrome","107.0.0","Windows 10","Ebbinghaus",2,23,"Ebbinghaus_perceptual_0000000_-0.24958",0,"Incongruent","-1",0.24958,"right",0,"590"
"S002","Perceptual",1,38.99245,"1517x721",1.093757,61.58,"chrome","107.0.0","Windows 10","Ebbinghaus",2,24,"Ebbinghaus_perceptual_0000000_0.24958",0,"Incongruent","1",0.24958,"left",0,"598"
"S002","Perceptual",1,38.99245,"1517x721",1.093757,61.58,"chrome","107.0.0","Windows 10","Ebbinghaus",2,25,"Ebbinghaus_perceptual_0000000_0.23503",0,"Incongruent","1",0.23503,"left",0,"920"
"S002","Perceptual",1,38.99245,"1517x721",1.093757,61.58,"chrome","107.0.0","Windows 10","Ebbinghaus",2,26,"Ebbinghaus_perceptual_0000000_-0.10861",0,"Incongruent","-1",0.10861,"left",1,"730"
"S002","Perceptual",1,38.99245,"1517x721",1.093757,61.58,"chrome","107.0.0","Windows 10","Ebbinghaus",2,27,"Ebbinghaus_perceptual_0000000_0.09449",0,"Incongruent","1",0.09449,"left",0,"1067"
"S002","Perceptual",1,38.99245,"1517x721",1.093757,61.58,"chrome","107.0.0","Windows 10","Ebbinghaus",2,28,"Ebbinghaus_perceptual_0000000_-0.26457",0,"Incongruent","-1",0.26457,"right",0,"352"
"S002","Perceptual",1,38.99245,"1517x721",1.093757,61.58,"chrome","107.0.0","Windows 10","Ebbinghaus",2,29,"Ebbinghaus_perceptual_0000000_-0.13982",0,"Incongruent","-1",0.13982,"right",0,"303"
"S002","Perceptual",1,38.99245,"1517x721",1.093757,61.58,"chrome","107.0.0","Windows 10","Ebbinghaus",2,30,"Ebbinghaus_perceptual_0000000_-0.21402",0,"Incongruent","-1",0.21402,"right",0,"433"
"S002","Perceptual",1,38.99245,"1517x721",1.093757,61.58,"chrome","107.0.0","Windows 10","Ebbinghaus",2,31,"Ebbinghaus_perceptual_0000000_-0.23503",0,"Incongruent","-1",0.23503,"right",0,"721"
"S002","Perceptual",1,38.99245,"1517x721",1.093757,61.58,"chrome","107.0.0","Windows 10","Ebbinghaus",2,32,"Ebbinghaus_perceptual_0000000_-0.12898",0,"Incongruent","-1",0.12898,"right",0,"468"
"S002","Perceptual",1,38.99245,"1517x721",1.093757,61.58,"chrome","107.0.0","Windows 10","VerticalHorizontal",2,1,"VerticalHorizontal_0000000_0.11898",0,"Incongruent","1",0.11898,"right",1,"597"
"S002","Perceptual",1,38.99245,"1517x721",1.093757,61.58,"chrome","107.0.0","Windows 10","VerticalHorizontal",2,2,"VerticalHorizontal_0000000_-0.08312",0,"Incongruent","-1",0.08312,"right",0,"615"
"S002","Perceptual",1,38.99245,"1517x721",1.093757,61.58,"chrome","107.0.0","Windows 10","VerticalHorizontal",2,3,"VerticalHorizontal_0000000_-0.14851",0,"Incongruent","-1",0.14851,"right",0,"611"
"S002","Perceptual",1,38.99245,"1517x721",1.093757,61.58,"chrome","107.0.0","Windows 10","VerticalHorizontal",2,4,"VerticalHorizontal_0000000_0.14234",0,"Incongruent","1",0.14234,"left",0,"850"
"S002","Perceptual",1,38.99245,"1517x721",1.093757,61.58,"chrome","107.0.0","Windows 10","VerticalHorizontal",2,5,"VerticalHorizontal_0000000_0.06972",0,"Incongruent","1",0.06972,"left",0,"1619"
"S002","Perceptual",1,38.99245,"1517x721",1.093757,61.58,"chrome","107.0.0","Windows 10","VerticalHorizontal",2,6,"VerticalHorizontal_0000000_-0.20992",0,"Incongruent","-1",0.20992,"right",0,"554"
"S002","Perceptual",1,38.99245,"1517x721",1.093757,61.58,"chrome","107.0.0","Windows 10","VerticalHorizontal",2,7,"VerticalHorizontal_0000000_-0.09271",0,"Incongruent","-1",0.09271,"left",1,"1545"
"S002","Perceptual",1,38.99245,"1517x721",1.093757,61.58,"chrome","107.0.0","Windows 10","VerticalHorizontal",2,8,"VerticalHorizontal_0000000_-0.18132",0,"Incongruent","-1",0.18132,"right",0,"493"
"S002","Perceptual",1,38.99245,"1517x721",1.093757,61.58,"chrome","107.0.0","Windows 10","VerticalHorizontal",2,9,"VerticalHorizontal_0000000_0.10808",0,"Incongruent","1",0.10808,"left",0,"654"
"S002","Perceptual",1,38.99245,"1517x721",1.093757,61.58,"chrome","107.0.0","Windows 10","VerticalHorizontal",2,10,"VerticalHorizontal_0000000_-0.1363",0,"Incongruent","-1",0.1363,"right",0,"668"
"S002","Perceptual",1,38.99245,"1517x721",1.093757,61.58,"chrome","107.0.0","Windows 10","VerticalHorizontal",2,11,"VerticalHorizontal_0000000_-0.16124",0,"Incongruent","-1",0.16124,"right",0,"1030"
"S002","Perceptual",1,38.99245,"1517x721",1.093757,61.58,"chrome","107.0.0","Windows 10","VerticalHorizontal",2,12,"VerticalHorizontal_0000000_0.18132",0,"Incongruent","1",0.18132,"left",0,"1048"
"S002","Perceptual",1,38.99245,"1517x721",1.093757,61.58,"chrome","107.0.0","Windows 10","VerticalHorizontal",2,13,"VerticalHorizontal_0000000_0.05368",0,"Incongruent","1",0.05368,"left",0,"1416"
"S002","Perceptual",1,38.99245,"1517x721",1.093757,61.58,"chrome","107.0.0","Windows 10","VerticalHorizontal",2,14,"VerticalHorizontal_0000000_0.19535",0,"Incongruent","1",0.19535,"left",0,"1328"
"S002","Perceptual",1,38.99245,"1517x721",1.093757,61.58,"chrome","107.0.0","Windows 10","VerticalHorizontal",2,15,"VerticalHorizontal_0000000_-0.19535",0,"Incongruent","-1",0.19535,"right",0,"561"
"S002","Perceptual",1,38.99245,"1517x721",1.093757,61.58,"chrome","107.0.0","Windows 10","VerticalHorizontal",2,16,"VerticalHorizontal_0000000_-0.10283",0,"Incongruent","-1",0.10283,"right",0,"2291"
"S002","Perceptual",1,38.99245,"1517x721",1.093757,61.58,"chrome","107.0.0","Windows 10","VerticalHorizontal",2,17,"VerticalHorizontal_0000000_-0.2250",0,"Incongruent","-1",0.225,"right",0,"555"
"S002","Perceptual",1,38.99245,"1517x721",1.093757,61.58,"chrome","107.0.0","Windows 10","VerticalHorizontal",2,18,"VerticalHorizontal_0000000_-0.0500",0,"Incongruent","-1",0.05,"right",0,"798"
"S002","Perceptual",1,38.99245,"1517x721",1.093757,61.58,"chrome","107.0.0","Windows 10","VerticalHorizontal",2,19,"VerticalHorizontal_0000000_0.15481",0,"Incongruent","1",0.15481,"left",0,"663"
"S002","Perceptual",1,38.99245,"1517x721",1.093757,61.58,"chrome","107.0.0","Windows 10","VerticalHorizontal",2,20,"VerticalHorizontal_0000000_0.20992",0,"Incongruent","1",0.20992,"left",0,"754"
"S002","Perceptual",1,38.99245,"1517x721",1.093757,61.58,"chrome","107.0.0","Windows 10","VerticalHorizontal",2,21,"VerticalHorizontal_0000000_0.09770",0,"Incongruent","1",0.0977,"left",0,"1456"
"S002","Perceptual",1,38.99245,"1517x721",1.093757,61.58,"chrome","107.0.0","Windows 10","VerticalHorizontal",2,22,"VerticalHorizontal_0000000_-0.11346",0,"Incongruent","-1",0.11346,"right",0,"886"
"S002","Perceptual",1,38.99245,"1517x721",1.093757,61.58,"chrome","107.0.0","Windows 10","VerticalHorizontal",2,23,"VerticalHorizontal_0000000_-0.12462",0,"Incongruent","-1",0.12462,"right",0,"668"
"S002","Perceptual",1,38.99245,"1517x721",1.093757,61.58,"chrome","107.0.0","Windows 10","VerticalHorizontal",2,24,"VerticalHorizontal_0000000_0.08785",0,"Incongruent","1",0.08785,"left",0,"3275"
"S002","Perceptual",1,38.99245,"1517x721",1.093757,61.58,"chrome","107.0.0","Windows 10","VerticalHorizontal",2,25,"VerticalHorizontal_0000000_0.13040",0,"Incongruent","1",0.1304,"right",1,"759"
"S002","Perceptual",1,38.99245,"1517x721",1.093757,61.58,"chrome","107.0.0","Windows 10","VerticalHorizontal",2,26,"VerticalHorizontal_0000000_-0.07406",0,"Incongruent","-1",0.07406,"right",0,"639"
"S002","Perceptual",1,38.99245,"1517x721",1.093757,61.58,"chrome","107.0.0","Windows 10","VerticalHorizontal",2,27,"VerticalHorizontal_0000000_-0.06552",0,"Incongruent","-1",0.06552,"right",0,"955"
"S002","Perceptual",1,38.99245,"1517x721",1.093757,61.58,"chrome","107.0.0","Windows 10","VerticalHorizontal",2,28,"VerticalHorizontal_0000000_0.16780",0,"Incongruent","1",0.1678,"left",0,"798"
"S002","Perceptual",1,38.99245,"1517x721",1.093757,61.58,"chrome","107.0.0","Windows 10","VerticalHorizontal",2,29,"VerticalHorizontal_0000000_0.06144",0,"Incongruent","1",0.06144,"left",0,"1199"
"S002","Perceptual",1,38.99245,"1517x721",1.093757,61.58,"chrome","107.0.0","Windows 10","VerticalHorizontal",2,30,"VerticalHorizontal_0000000_0.22500",0,"Incongruent","1",0.225,"left",0,"718"
"S002","Perceptual",1,38.99245,"1517x721",1.093757,61.58,"chrome","107.0.0","Windows 10","VerticalHorizontal",2,31,"VerticalHorizontal_0000000_0.07853",0,"Incongruent","1",0.07853,"left",0,"1665"
"S002","Perceptual",1,38.99245,"1517x721",1.093757,61.58,"chrome","107.0.0","Windows 10","VerticalHorizontal",2,32,"VerticalHorizontal_0000000_-0.0575",0,"Incongruent","-1",0.0575,"right",0,"841"
"S001","Perceptual",1,50.044,"1558x1576",2.455408,60.09,"chrome","107.0.0","Windows 10","MullerLyer",1,1,"MullerLyer_perceptual_0000000_0.24665",0,"Incongruent","1",0.24665,"down",1,"831"
"S001","Perceptual",1,50.044,"1558x1576",2.455408,60.09,"chrome","107.0.0","Windows 10","MullerLyer",1,2,"MullerLyer_perceptual_0000000_0.35000",0,"Incongruent","1",0.35,"down",1,"727"
"S001","Perceptual",1,50.044,"1558x1576",2.455408,60.09,"chrome","107.0.0","Windows 10","MullerLyer",1,3,"MullerLyer_perceptual_0000000_-0.08693",0,"Incongruent","-1",0.08693,"up",1,"1383"
"S001","Perceptual",1,50.044,"1558x1576",2.455408,60.09,"chrome","107.0.0","Windows 10","MullerLyer",1,4,"MullerLyer_perceptual_0000000_0.08007",0,"Incongruent","1",0.08007,"up",0,"1478"
"S001","Perceptual",1,50.044,"1558x1576",2.455408,60.09,"chrome","107.0.0","Windows 10","MullerLyer",1,5,"MullerLyer_perceptual_0000000_0.27080",0,"Incongruent","1",0.2708,"down",1,"789"
"S001","Perceptual",1,50.044,"1558x1576",2.455408,60.09,"chrome","107.0.0","Windows 10","MullerLyer",1,6,"MullerLyer_perceptual_0000000_-0.2350",0,"Incongruent","-1",0.235,"up",1,"769"
"S001","Perceptual",1,50.044,"1558x1576",2.455408,60.09,"chrome","107.0.0","Windows 10","MullerLyer",1,7,"MullerLyer_perceptual_0000000_0.20174",0,"Incongruent","1",0.20174,"down",1,"674"
"S001","Perceptual",1,50.044,"1558x1576",2.455408,60.09,"chrome","107.0.0","Windows 10","MullerLyer",1,8,"MullerLyer_perceptual_0000000_0.10919",0,"Incongruent","1",0.10919,"down",1,"888"
"S001","Perceptual",1,50.044,"1558x1576",2.455408,60.09,"chrome","107.0.0","Windows 10","MullerLyer",1,9,"MullerLyer_perceptual_0000000_-0.0500",0,"Incongruent","-1",0.05,"up",1,"1501"
"S001","Perceptual",1,50.044,"1558x1576",2.455408,60.09,"chrome","107.0.0","Windows 10","MullerLyer",1,10,"MullerLyer_perceptual_0000000_-0.3500",0,"Incongruent","-1",0.35,"up",1,"793"
"S001","Perceptual",1,50.044,"1558x1576",2.455408,60.09,"chrome","107.0.0","Windows 10","MullerLyer",1,11,"MullerLyer_perceptual_0000000_-0.19122",0,"Incongruent","-1",0.19122,"up",1,"792"
"S001","Perceptual",1,50.044,"1558x1576",2.455408,60.09,"chrome","107.0.0","Windows 10","MullerLyer",1,12,"MullerLyer_perceptual_0000000_0.05545",0,"Incongruent","1",0.05545,"down",1,"1240"
"S001","Perceptual",1,50.044,"1558x1576",2.455408,60.09,"chrome","107.0.0","Windows 10","MullerLyer",1,13,"MullerLyer_perceptual_0000000_0.18098",0,"Incongruent","1",0.18098,"down",1,"685"
"S001","Perceptual",1,50.044,"1558x1576",2.455408,60.09,"chrome","107.0.0","Windows 10","MullerLyer",1,14,"MullerLyer_perceptual_0000000_0.09407",0,"Incongruent","1",0.09407,"down",1,"751"
"S001","Perceptual",1,50.044,"1558x1576",2.455408,60.09,"chrome","107.0.0","Windows 10","MullerLyer",1,15,"MullerLyer_perceptual_0000000_0.32247",0,"Incongruent","1",0.32247,"down",1,"677"
"S001","Perceptual",1,50.044,"1558x1576",2.455408,60.09,"chrome","107.0.0","Windows 10","MullerLyer",1,16,"MullerLyer_perceptual_0000000_-0.15194",0,"Incongruent","-1",0.15194,"up",1,"582"
"S001","Perceptual",1,50.044,"1558x1576",2.455408,60.09,"chrome","107.0.0","Windows 10","MullerLyer",1,17,"MullerLyer_perceptual_0000000_-0.1340",0,"Incongruent","-1",0.134,"up",1,"605"
"S001","Perceptual",1,50.044,"1558x1576",2.455408,60.09,"chrome","107.0.0","Windows 10","MullerLyer",1,18,"MullerLyer_perceptual_0000000_0.14283",0,"Incongruent","1",0.14283,"down",1,"1510"
"S001","Perceptual",1,50.044,"1558x1576",2.455408,60.09,"chrome","107.0.0","Windows 10","MullerLyer",1,19,"MullerLyer_perceptual_0000000_-0.06118",0,"Incongruent","-1",0.06118,"up",1,"826"
"S001","Perceptual",1,50.044,"1558x1576",2.455408,60.09,"chrome","107.0.0","Windows 10","MullerLyer",1,20,"MullerLyer_perceptual_0000000_-0.11718",0,"Incongruent","-1",0.11718,"up",1,"707"
"S001","Perceptual",1,50.044,"1558x1576",2.455408,60.09,"chrome","107.0.0","Windows 10","MullerLyer",1,21,"MullerLyer_perceptual_0000000_0.12545",0,"Incongruent","1",0.12545,"down",1,"1039"
"S001","Perceptual",1,50.044,"1558x1576",2.455408,60.09,"chrome","107.0.0","Windows 10","MullerLyer",1,22,"MullerLyer_perceptual_0000000_-0.17102",0,"Incongruent","-1",0.17102,"up",1,"607"
"S001","Perceptual",1,50.044,"1558x1576",2.455408,60.09,"chrome","107.0.0","Windows 10","MullerLyer",1,23,"MullerLyer_perceptual_0000000_0.29607",0,"Incongruent","1",0.29607,"down",1,"577"
"S001","Perceptual",1,50.044,"1558x1576",2.455408,60.09,"chrome","107.0.0","Windows 10","MullerLyer",1,24,"MullerLyer_perceptual_0000000_0.16134",0,"Incongruent","1",0.16134,"down",1,"783"
"S001","Perceptual",1,50.044,"1558x1576",2.455408,60.09,"chrome","107.0.0","Windows 10","MullerLyer",1,25,"MullerLyer_perceptual_0000000_-0.32247",0,"Incongruent","-1",0.32247,"up",1,"509"
"S001","Perceptual",1,50.044,"1558x1576",2.455408,60.09,"chrome","107.0.0","Windows 10","MullerLyer",1,26,"MullerLyer_perceptual_0000000_0.22363",0,"Incongruent","1",0.22363,"down",1,"557"
"S001","Perceptual",1,50.044,"1558x1576",2.455408,60.09,"chrome","107.0.0","Windows 10","MullerLyer",1,27,"MullerLyer_perceptual_0000000_-0.29607",0,"Incongruent","-1",0.29607,"up",1,"538"
"S001","Perceptual",1,50.044,"1558x1576",2.455408,60.09,"chrome","107.0.0","Windows 10","MullerLyer",1,28,"MullerLyer_perceptual_0000000_-0.10149",0,"Incongruent","-1",0.10149,"up",1,"614"
"S001","Perceptual",1,50.044,"1558x1576",2.455408,60.09,"chrome","107.0.0","Windows 10","MullerLyer",1,29,"MullerLyer_perceptual_0000000_-0.07349",0,"Incongruent","-1",0.07349,"up",1,"922"
"S001","Perceptual",1,50.044,"1558x1576",2.455408,60.09,"chrome","107.0.0","Windows 10","MullerLyer",1,30,"MullerLyer_perceptual_0000000_0.06719",0,"Incongruent","1",0.06719,"down",1,"1309"
"S001","Perceptual",1,50.044,"1558x1576",2.455408,60.09,"chrome","107.0.0","Windows 10","MullerLyer",1,31,"MullerLyer_perceptual_0000000_-0.2708",0,"Incongruent","-1",0.2708,"up",1,"569"
"S001","Perceptual",1,50.044,"1558x1576",2.455408,60.09,"chrome","107.0.0","Windows 10","MullerLyer",1,32,"MullerLyer_perceptual_0000000_-0.21255",0,"Incongruent","-1",0.21255,"up",1,"644"
"S001","Perceptual",1,50.044,"1558x1576",2.455408,60.09,"chrome","107.0.0","Windows 10","Ebbinghaus",1,1,"Ebbinghaus_perceptual_0000000_-0.11858",0,"Incongruent","-1",0.11858,"left",1,"1693"
"S001","Perceptual",1,50.044,"1558x1576",2.455408,60.09,"chrome","107.0.0","Windows 10","Ebbinghaus",1,2,"Ebbinghaus_perceptual_0000000_-0.23503",0,"Incongruent","-1",0.23503,"left",1,"842"
"S001","Perceptual",1,50.044,"1558x1576",2.455408,60.09,"chrome","107.0.0","Windows 10","Ebbinghaus",1,3,"Ebbinghaus_perceptual_0000000_0.10380",0,"Incongruent","1",0.1038,"right",1,"1560"
"S001","Perceptual",1,50.044,"1558x1576",2.455408,60.09,"chrome","107.0.0","Windows 10","Ebbinghaus",1,4,"Ebbinghaus_perceptual_0000000_-0.21402",0,"Incongruent","-1",0.21402,"left",1,"3267"
"S001","Perceptual",1,50.044,"1558x1576",2.455408,60.09,"chrome","107.0.0","Windows 10","Ebbinghaus",1,5,"Ebbinghaus_perceptual_0000000_-0.18754",0,"Incongruent","-1",0.18754,"left",1,"655"
"S001","Perceptual",1,50.044,"1558x1576",2.455408,60.09,"chrome","107.0.0","Windows 10","Ebbinghaus",1,6,"Ebbinghaus_perceptual_0000000_-0.26457",0,"Incongruent","-1",0.26457,"left",1,"569"
"S001","Perceptual",1,50.044,"1558x1576",2.455408,60.09,"chrome","107.0.0","Windows 10","Ebbinghaus",1,7,"Ebbinghaus_perceptual_0000000_-0.13982",0,"Incongruent","-1",0.13982,"left",1,"839"
"S001","Perceptual",1,50.044,"1558x1576",2.455408,60.09,"chrome","107.0.0","Windows 10","Ebbinghaus",1,8,"Ebbinghaus_perceptual_0000000_0.28000",0,"Incongruent","1",0.28,"right",1,"752"
"S001","Perceptual",1,50.044,"1558x1576",2.455408,60.09,"chrome","107.0.0","Windows 10","Ebbinghaus",1,9,"Ebbinghaus_perceptual_0000000_0.13434",0,"Incongruent","1",0.13434,"left",0,"1117"
"S001","Perceptual",1,50.044,"1558x1576",2.455408,60.09,"chrome","107.0.0","Windows 10","Ebbinghaus",1,10,"Ebbinghaus_perceptual_0000000_-0.09909",0,"Incongruent","-1",0.09909,"left",1,"727"
"S001","Perceptual",1,50.044,"1558x1576",2.455408,60.09,"chrome","107.0.0","Windows 10","Ebbinghaus",1,11,"Ebbinghaus_perceptual_0000000_-0.2800",0,"Incongruent","-1",0.28,"left",1,"637"
"S001","Perceptual",1,50.044,"1558x1576",2.455408,60.09,"chrome","107.0.0","Windows 10","Ebbinghaus",1,12,"Ebbinghaus_perceptual_0000000_0.19399",0,"Incongruent","1",0.19399,"right",1,"1021"
"S001","Perceptual",1,50.044,"1558x1576",2.455408,60.09,"chrome","107.0.0","Windows 10","Ebbinghaus",1,13,"Ebbinghaus_perceptual_0000000_-0.10861",0,"Incongruent","-1",0.10861,"left",1,"686"
"S001","Perceptual",1,50.044,"1558x1576",2.455408,60.09,"chrome","107.0.0","Windows 10","Ebbinghaus",1,14,"Ebbinghaus_perceptual_0000000_0.18119",0,"Incongruent","1",0.18119,"right",1,"1161"
"S001","Perceptual",1,50.044,"1558x1576",2.455408,60.09,"chrome","107.0.0","Windows 10","Ebbinghaus",1,15,"Ebbinghaus_perceptual_0000000_-0.12898",0,"Incongruent","-1",0.12898,"left",1,"597"
"S001","Perceptual",1,50.044,"1558x1576",2.455408,60.09,"chrome","107.0.0","Windows 10","Ebbinghaus",1,16,"Ebbinghaus_perceptual_0000000_0.09449",0,"Incongruent","1",0.09449,"right",1,"1533"
"S001","Perceptual",1,50.044,"1558x1576",2.455408,60.09,"chrome","107.0.0","Windows 10","Ebbinghaus",1,17,"Ebbinghaus_perceptual_0000000_0.12372",0,"Incongruent","1",0.12372,"right",1,"783"
"S001","Perceptual",1,50.044,"1558x1576",2.455408,60.09,"chrome","107.0.0","Windows 10","Ebbinghaus",1,18,"Ebbinghaus_perceptual_0000000_-0.17495",0,"Incongruent","-1",0.17495,"left",1,"611"
"S001","Perceptual",1,50.044,"1558x1576",2.455408,60.09,"chrome","107.0.0","Windows 10","Ebbinghaus",1,19,"Ebbinghaus_perceptual_0000000_0.16882",0,"Incongruent","1",0.16882,"right",1,"883"
"S001","Perceptual",1,50.044,"1558x1576",2.455408,60.09,"chrome","107.0.0","Windows 10","Ebbinghaus",1,20,"Ebbinghaus_perceptual_0000000_-0.20056",0,"Incongruent","-1",0.20056,"left",1,"634"
"S001","Perceptual",1,50.044,"1558x1576",2.455408,60.09,"chrome","107.0.0","Windows 10","Ebbinghaus",1,21,"Ebbinghaus_perceptual_0000000_0.24958",0,"Incongruent","1",0.24958,"right",1,"761"
"S001","Perceptual",1,50.044,"1558x1576",2.455408,60.09,"chrome","107.0.0","Windows 10","Ebbinghaus",1,22,"Ebbinghaus_perceptual_0000000_0.15689",0,"Incongruent","1",0.15689,"left",0,"921"
"S001","Perceptual",1,50.044,"1558x1576",2.455408,60.09,"chrome","107.0.0","Windows 10","Ebbinghaus",1,23,"Ebbinghaus_perceptual_0000000_0.26457",0,"Incongruent","1",0.26457,"right",1,"781"
"S001","Perceptual",1,50.044,"1558x1576",2.455408,60.09,"chrome","107.0.0","Windows 10","Ebbinghaus",1,24,"Ebbinghaus_perceptual_0000000_0.22091",0,"Incongruent","1",0.22091,"right",1,"707"
"S001","Perceptual",1,50.044,"1558x1576",2.455408,60.09,"chrome","107.0.0","Windows 10","Ebbinghaus",1,25,"Ebbinghaus_perceptual_0000000_-0.15109",0,"Incongruent","-1",0.15109,"left",1,"692"
"S001","Perceptual",1,50.044,"1558x1576",2.455408,60.09,"chrome","107.0.0","Windows 10","Ebbinghaus",1,26,"Ebbinghaus_perceptual_0000000_-0.0900",0,"Incongruent","-1",0.09,"left",1,"559"
"S001","Perceptual",1,50.044,"1558x1576",2.455408,60.09,"chrome","107.0.0","Windows 10","Ebbinghaus",1,27,"Ebbinghaus_perceptual_0000000_0.23503",0,"Incongruent","1",0.23503,"right",1,"1009"
"S001","Perceptual",1,50.044,"1558x1576",2.455408,60.09,"chrome","107.0.0","Windows 10","Ebbinghaus",1,28,"Ebbinghaus_perceptual_0000000_-0.24958",0,"Incongruent","-1",0.24958,"left",1,"643"
"S001","Perceptual",1,50.044,"1558x1576",2.455408,60.09,"chrome","107.0.0","Windows 10","Ebbinghaus",1,29,"Ebbinghaus_perceptual_0000000_-0.1628",0,"Incongruent","-1",0.1628,"left",1,"761"
"S001","Perceptual",1,50.044,"1558x1576",2.455408,60.09,"chrome","107.0.0","Windows 10","Ebbinghaus",1,30,"Ebbinghaus_perceptual_0000000_0.11354",0,"Incongruent","1",0.11354,"right",1,"1053"
"S001","Perceptual",1,50.044,"1558x1576",2.455408,60.09,"chrome","107.0.0","Windows 10","Ebbinghaus",1,31,"Ebbinghaus_perceptual_0000000_0.14540",0,"Incongruent","1",0.1454,"left",0,"1559"
"S001","Perceptual",1,50.044,"1558x1576",2.455408,60.09,"chrome","107.0.0","Windows 10","Ebbinghaus",1,32,"Ebbinghaus_perceptual_0000000_0.20724",0,"Incongruent","1",0.20724,"right",1,"787"
"S001","Perceptual",1,50.044,"1558x1576",2.455408,60.09,"chrome","107.0.0","Windows 10","VerticalHorizontal",1,1,"VerticalHorizontal_0000000_0.18132",0,"Incongruent","1",0.18132,"left",0,"1093"
"S001","Perceptual",1,50.044,"1558x1576",2.455408,60.09,"chrome","107.0.0","Windows 10","VerticalHorizontal",1,2,"VerticalHorizontal_0000000_0.05368",0,"Incongruent","1",0.05368,"left",0,"2165"
"S001","Perceptual",1,50.044,"1558x1576",2.455408,60.09,"chrome","107.0.0","Windows 10","VerticalHorizontal",1,3,"VerticalHorizontal_0000000_0.08785",0,"Incongruent","1",0.08785,"left",0,"1144"
"S001","Perceptual",1,50.044,"1558x1576",2.455408,60.09,"chrome","107.0.0","Windows 10","VerticalHorizontal",1,4,"VerticalHorizontal_0000000_0.07853",0,"Incongruent","1",0.07853,"left",0,"937"
"S001","Perceptual",1,50.044,"1558x1576",2.455408,60.09,"chrome","107.0.0","Windows 10","VerticalHorizontal",1,5,"VerticalHorizontal_0000000_-0.10283",0,"Incongruent","-1",0.10283,"right",0,"704"
"S001","Perceptual",1,50.044,"1558x1576",2.455408,60.09,"chrome","107.0.0","Windows 10","VerticalHorizontal",1,6,"VerticalHorizontal_0000000_0.11898",0,"Incongruent","1",0.11898,"left",0,"1240"
"S001","Perceptual",1,50.044,"1558x1576",2.455408,60.09,"chrome","107.0.0","Windows 10","VerticalHorizontal",1,7,"VerticalHorizontal_0000000_-0.18132",0,"Incongruent","-1",0.18132,"right",0,"681"
"S001","Perceptual",1,50.044,"1558x1576",2.455408,60.09,"chrome","107.0.0","Windows 10","VerticalHorizontal",1,8,"VerticalHorizontal_0000000_-0.1363",0,"Incongruent","-1",0.1363,"right",0,"688"
"S001","Perceptual",1,50.044,"1558x1576",2.455408,60.09,"chrome","107.0.0","Windows 10","VerticalHorizontal",1,9,"VerticalHorizontal_0000000_0.22500",0,"Incongruent","1",0.225,"left",0,"718"
"S001","Perceptual",1,50.044,"1558x1576",2.455408,60.09,"chrome","107.0.0","Windows 10","VerticalHorizontal",1,10,"VerticalHorizontal_0000000_-0.07406",0,"Incongruent","-1",0.07406,"right",0,"1320"
"S001","Perceptual",1,50.044,"1558x1576",2.455408,60.09,"chrome","107.0.0","Windows 10","VerticalHorizontal",1,11,"VerticalHorizontal_0000000_-0.12462",0,"Incongruent","-1",0.12462,"right",0,"756"
"S001","Perceptual",1,50.044,"1558x1576",2.455408,60.09,"chrome","107.0.0","Windows 10","VerticalHorizontal",1,12,"VerticalHorizontal_0000000_-0.19535",0,"Incongruent","-1",0.19535,"right",0,"711"
"S001","Perceptual",1,50.044,"1558x1576",2.455408,60.09,"chrome","107.0.0","Windows 10","VerticalHorizontal",1,13,"VerticalHorizontal_0000000_0.06972",0,"Incongruent","1",0.06972,"left",0,"699"
"S001","Perceptual",1,50.044,"1558x1576",2.455408,60.09,"chrome","107.0.0","Windows 10","VerticalHorizontal",1,14,"VerticalHorizontal_0000000_-0.0500",0,"Incongruent","-1",0.05,"right",0,"1826"
"S001","Perceptual",1,50.044,"1558x1576",2.455408,60.09,"chrome","107.0.0","Windows 10","VerticalHorizontal",1,15,"VerticalHorizontal_0000000_-0.14851",0,"Incongruent","-1",0.14851,"right",0,"986"
"S001","Perceptual",1,50.044,"1558x1576",2.455408,60.09,"chrome","107.0.0","Windows 10","VerticalHorizontal",1,16,"VerticalHorizontal_0000000_0.13040",0,"Incongruent","1",0.1304,"left",0,"727"
"S001","Perceptual",1,50.044,"1558x1576",2.455408,60.09,"chrome","107.0.0","Windows 10","VerticalHorizontal",1,17,"VerticalHorizontal_0000000_0.06144",0,"Incongruent","1",0.06144,"left",0,"833"
"S001","Perceptual",1,50.044,"1558x1576",2.455408,60.09,"chrome","107.0.0","Windows 10","VerticalHorizontal",1,18,"VerticalHorizontal_0000000_0.10808",0,"Incongruent","1",0.10808,"left",0,"859"
"S001","Perceptual",1,50.044,"1558x1576",2.455408,60.09,"chrome","107.0.0","Windows 10","VerticalHorizontal",1,19,"VerticalHorizontal_0000000_-0.06552",0,"Incongruent","-1",0.06552,"right",0,"1142"
"S001","Perceptual",1,50.044,"1558x1576",2.455408,60.09,"chrome","107.0.0","Windows 10","VerticalHorizontal",1,20,"VerticalHorizontal_0000000_0.14234",0,"Incongruent","1",0.14234,"left",0,"759"
"S001","Perceptual",1,50.044,"1558x1576",2.455408,60.09,"chrome","107.0.0","Windows 10","VerticalHorizontal",1,21,"VerticalHorizontal_0000000_-0.20992",0,"Incongruent","-1",0.20992,"right",0,"604"
"S001","Perceptual",1,50.044,"1558x1576",2.455408,60.09,"chrome","107.0.0","Windows 10","VerticalHorizontal",1,22,"VerticalHorizontal_0000000_0.20992",0,"Incongruent","1",0.20992,"left",0,"623"
"S001","Perceptual",1,50.044,"1558x1576",2.455408,60.09,"chrome","107.0.0","Windows 10","VerticalHorizontal",1,23,"VerticalHorizontal_0000000_-0.16124",0,"Incongruent","-1",0.16124,"right",0,"594"
"S001","Perceptual",1,50.044,"1558x1576",2.455408,60.09,"chrome","107.0.0","Windows 10","VerticalHorizontal",1,24,"VerticalHorizontal_0000000_-0.08312",0,"Incongruent","-1",0.08312,"right",0,"1061"
"S001","Perceptual",1,50.044,"1558x1576",2.455408,60.09,"chrome","107.0.0","Windows 10","VerticalHorizontal",1,25,"VerticalHorizontal_0000000_-0.09271",0,"Incongruent","-1",0.09271,"right",0,"780"
"S001","Perceptual",1,50.044,"1558x1576",2.455408,60.09,"chrome","107.0.0","Windows 10","VerticalHorizontal",1,26,"VerticalHorizontal_0000000_0.16780",0,"Incongruent","1",0.1678,"left",0,"906"
"S001","Perceptual",1,50.044,"1558x1576",2.455408,60.09,"chrome","107.0.0","Windows 10","VerticalHorizontal",1,27,"VerticalHorizontal_0000000_-0.11346",0,"Incongruent","-1",0.11346,"right",0,"931"
"S001","Perceptual",1,50.044,"1558x1576",2.455408,60.09,"chrome","107.0.0","Windows 10","VerticalHorizontal",1,28,"VerticalHorizontal_0000000_0.19535",0,"Incongruent","1",0.19535,"left",0,"1121"
"S001","Perceptual",1,50.044,"1558x1576",2.455408,60.09,"chrome","107.0.0","Windows 10","VerticalHorizontal",1,29,"VerticalHorizontal_0000000_0.15481",0,"Incongruent","1",0.15481,"left",0,"869"
"S001","Perceptual",1,50.044,"1558x1576",2.455408,60.09,"chrome","107.0.0","Windows 10","VerticalHorizontal",1,30,"VerticalHorizontal_0000000_0.09770",0,"Incongruent","1",0.0977,"left",0,"1695"
"S001","Perceptual",1,50.044,"1558x1576",2.455408,60.09,"chrome","107.0.0","Windows 10","VerticalHorizontal",1,31,"VerticalHorizontal_0000000_-0.2250",0,"Incongruent","-1",0.225,"right",0,"670"
"S001","Perceptual",1,50.044,"1558x1576",2.455408,60.09,"chrome","107.0.0","Windows 10","VerticalHorizontal",1,32,"VerticalHorizontal_0000000_-0.0575",0,"Incongruent","-1",0.0575,"right",0,"1577"
"S001","Perceptual",1,50.044,"1558x1576",2.455408,60.09,"chrome","107.0.0","Windows 10","MullerLyer",2,1,"MullerLyer_perceptual_0000000_-0.33609",0,"Incongruent","-1",0.33609,"down",0,"675"
"S001","Perceptual",1,50.044,"1558x1576",2.455408,60.09,"chrome","107.0.0","Windows 10","MullerLyer",2,2,"MullerLyer_perceptual_0000000_0.05000",0,"Incongruent","1",0.05,"up",0,"845"
"S001","Perceptual",1,50.044,"1558x1576",2.455408,60.09,"chrome","107.0.0","Windows 10","MullerLyer",2,3,"MullerLyer_perceptual_0000000_0.06118",0,"Incongruent","1",0.06118,"up",0,"1227"
"S001","Perceptual",1,50.044,"1558x1576",2.455408,60.09,"chrome","107.0.0","Windows 10","MullerLyer",2,4,"MullerLyer_perceptual_0000000_-0.24665",0,"Incongruent","-1",0.24665,"down",0,"746"
"S001","Perceptual",1,50.044,"1558x1576",2.455408,60.09,"chrome","107.0.0","Windows 10","MullerLyer",2,5,"MullerLyer_perceptual_0000000_-0.25858",0,"Incongruent","-1",0.25858,"down",0,"675"
"S001","Perceptual",1,50.044,"1558x1576",2.455408,60.09,"chrome","107.0.0","Windows 10","MullerLyer",2,6,"MullerLyer_perceptual_0000000_0.21255",0,"Incongruent","1",0.21255,"up",0,"964"
"S001","Perceptual",1,50.044,"1558x1576",2.455408,60.09,"chrome","107.0.0","Windows 10","MullerLyer",2,7,"MullerLyer_perceptual_0000000_0.33609",0,"Incongruent","1",0.33609,"up",0,"586"
"S001","Perceptual",1,50.044,"1558x1576",2.455408,60.09,"chrome","107.0.0","Windows 10","MullerLyer",2,8,"MullerLyer_perceptual_0000000_-0.09407",0,"Incongruent","-1",0.09407,"down",0,"638"
"S001","Perceptual",1,50.044,"1558x1576",2.455408,60.09,"chrome","107.0.0","Windows 10","MullerLyer",2,9,"MullerLyer_perceptual_0000000_-0.16134",0,"Incongruent","-1",0.16134,"down",0,"679"
"S001","Perceptual",1,50.044,"1558x1576",2.455408,60.09,"chrome","107.0.0","Windows 10","MullerLyer",2,10,"MullerLyer_perceptual_0000000_0.23500",0,"Incongruent","1",0.235,"up",0,"652"
"S001","Perceptual",1,50.044,"1558x1576",2.455408,60.09,"chrome","107.0.0","Windows 10","MullerLyer",2,11,"MullerLyer_perceptual_0000000_0.25858",0,"Incongruent","1",0.25858,"up",0,"587"
"S001","Perceptual",1,50.044,"1558x1576",2.455408,60.09,"chrome","107.0.0","Windows 10","MullerLyer",2,12,"MullerLyer_perceptual_0000000_-0.28329",0,"Incongruent","-1",0.28329,"down",0,"528"
"S001","Perceptual",1,50.044,"1558x1576",2.455408,60.09,"chrome","107.0.0","Windows 10","MullerLyer",2,13,"MullerLyer_perceptual_0000000_0.11718",0,"Incongruent","1",0.11718,"up",0,"771"
"S001","Perceptual",1,50.044,"1558x1576",2.455408,60.09,"chrome","107.0.0","Windows 10","MullerLyer",2,14,"MullerLyer_perceptual_0000000_0.28329",0,"Incongruent","1",0.28329,"up",0,"599"
"S001","Perceptual",1,50.044,"1558x1576",2.455408,60.09,"chrome","107.0.0","Windows 10","MullerLyer",2,15,"MullerLyer_perceptual_0000000_0.15194",0,"Incongruent","1",0.15194,"up",0,"812"
"S001","Perceptual",1,50.044,"1558x1576",2.455408,60.09,"chrome","107.0.0","Windows 10","MullerLyer",2,16,"MullerLyer_perceptual_0000000_-0.18098",0,"Incongruent","-1",0.18098,"down",0,"603"
"S001","Perceptual",1,50.044,"1558x1576",2.455408,60.09,"chrome","107.0.0","Windows 10","MullerLyer",2,17,"MullerLyer_perceptual_0000000_0.30913",0,"Incongruent","1",0.30913,"up",0,"560"
"S001","Perceptual",1,50.044,"1558x1576",2.455408,60.09,"chrome","107.0.0","Windows 10","MullerLyer",2,18,"MullerLyer_perceptual_0000000_-0.06719",0,"Incongruent","-1",0.06719,"down",0,"535"
"S001","Perceptual",1,50.044,"1558x1576",2.455408,60.09,"chrome","107.0.0","Windows 10","MullerLyer",2,19,"MullerLyer_perceptual_0000000_0.17102",0,"Incongruent","1",0.17102,"up",0,"598"
"S001","Perceptual",1,50.044,"1558x1576",2.455408,60.09,"chrome","107.0.0","Windows 10","MullerLyer",2,20,"MullerLyer_perceptual_0000000_-0.14283",0,"Incongruent","-1",0.14283,"down",0,"850"
"S001","Perceptual",1,50.044,"1558x1576",2.455408,60.09,"chrome","107.0.0","Windows 10","MullerLyer",2,21,"MullerLyer_perceptual_0000000_-0.05545",0,"Incongruent","-1",0.05545,"down",0,"888"
"S001","Perceptual",1,50.044,"1558x1576",2.455408,60.09,"chrome","107.0.0","Windows 10","MullerLyer",2,22,"MullerLyer_perceptual_0000000_0.08693",0,"Incongruent","1",0.08693,"up",0,"790"
"S001","Perceptual",1,50.044,"1558x1576",2.455408,60.09,"chrome","107.0.0","Windows 10","MullerLyer",2,23,"MullerLyer_perceptual_0000000_-0.22363",0,"Incongruent","-1",0.22363,"down",0,"795"
"S001","Perceptual",1,50.044,"1558x1576",2.455408,60.09,"chrome","107.0.0","Windows 10","MullerLyer",2,24,"MullerLyer_perceptual_0000000_-0.30913",0,"Incongruent","-1",0.30913,"down",0,"1209"
"S001","Perceptual",1,50.044,"1558x1576",2.455408,60.09,"chrome","107.0.0","Windows 10","MullerLyer",2,25,"MullerLyer_perceptual_0000000_0.07349",0,"Incongruent","1",0.07349,"up",0,"1579"
"S001","Perceptual",1,50.044,"1558x1576",2.455408,60.09,"chrome","107.0.0","Windows 10","MullerLyer",2,26,"MullerLyer_perceptual_0000000_-0.20174",0,"Incongruent","-1",0.20174,"down",0,"701"
"S001","Perceptual",1,50.044,"1558x1576",2.455408,60.09,"chrome","107.0.0","Windows 10","MullerLyer",2,27,"MullerLyer_perceptual_0000000_-0.08007",0,"Incongruent","-1",0.08007,"down",0,"1140"
"S001","Perceptual",1,50.044,"1558x1576",2.455408,60.09,"chrome","107.0.0","Windows 10","MullerLyer",2,28,"MullerLyer_perceptual_0000000_-0.10919",0,"Incongruent","-1",0.10919,"down",0,"4074"
"S001","Perceptual",1,50.044,"1558x1576",2.455408,60.09,"chrome","107.0.0","Windows 10","MullerLyer",2,29,"MullerLyer_perceptual_0000000_0.13400",0,"Incongruent","1",0.134,"up",0,"1208"
"S001","Perceptual",1,50.044,"1558x1576",2.455408,60.09,"chrome","107.0.0","Windows 10","MullerLyer",2,30,"MullerLyer_perceptual_0000000_0.10149",0,"Incongruent","1",0.10149,"up",0,"3491"
"S001","Perceptual",1,50.044,"1558x1576",2.455408,60.09,"chrome","107.0.0","Windows 10","MullerLyer",2,31,"MullerLyer_perceptual_0000000_-0.12545",0,"Incongruent","-1",0.12545,"down",0,"793"
"S001","Perceptual",1,50.044,"1558x1576",2.455408,60.09,"chrome","107.0.0","Windows 10","MullerLyer",2,32,"MullerLyer_perceptual_0000000_0.19122",0,"Incongruent","1",0.19122,"up",0,"633"
"S001","Perceptual",1,50.044,"1558x1576",2.455408,60.09,"chrome","107.0.0","Windows 10","Ebbinghaus",2,1,"Ebbinghaus_perceptual_0000000_-0.15689",0,"Incongruent","-1",0.15689,"right",0,"618"
"S001","Perceptual",1,50.044,"1558x1576",2.455408,60.09,"chrome","107.0.0","Windows 10","Ebbinghaus",2,2,"Ebbinghaus_perceptual_0000000_0.15109",0,"Incongruent","1",0.15109,"left",0,"1859"
"S001","Perceptual",1,50.044,"1558x1576",2.455408,60.09,"chrome","107.0.0","Windows 10","Ebbinghaus",2,3,"Ebbinghaus_perceptual_0000000_0.24225",0,"Incongruent","1",0.24225,"left",0,"808"
"S001","Perceptual",1,50.044,"1558x1576",2.455408,60.09,"chrome","107.0.0","Windows 10","Ebbinghaus",2,4,"Ebbinghaus_perceptual_0000000_0.27223",0,"Incongruent","1",0.27223,"left",0,"927"
