"Participant","Task","Task_Order","Duration","Screen_Resolution","Screen_Size","Screen_Refresh","Browser","Browser_Version","Device_OS","Illusion_Type","Block","Trial","Stimulus","Illusion_Strength","Illusion_Effect","Illusion_Side","Illusion_Difference","Answer","Error","RT"
"S010","Illusion_Session2",NA,27.6705166666667,"1920x969",1.86048,60.03,"chrome","107.0.0","Windows 10","Ebbinghaus",1,19,"Ebbinghaus_0.87143_0.28000",0.87143,"Incongruent","1",0.28,"left",0,0.475
"S010","Illusion_Session2",NA,27.6705166666667,"1920x969",1.86048,60.03,"chrome","107.0.0","Windows 10","Ebbinghaus",1,20,"Ebbinghaus_-0.87143_0.15857",-0.87143,"Congruent","1",0.15857,"left",0,0.81
"S010","Illusion_Session2",NA,27.6705166666667,"1920x969",1.86048,60.03,"chrome","107.0.0","Windows 10","Ebbinghaus",1,21,"Ebbinghaus_0.61429_0.15857",0.61429,"Incongruent","1",0.15857,"left",0,1.513
"S010","Illusion_Session2",NA,27.6705166666667,"1920x969",1.86048,60.03,"chrome","107.0.0","Windows 10","Ebbinghaus",1,22,"Ebbinghaus_-0.35714_0.28000",-0.35714,"Congruent","1",0.28,"left",0,1.34
"S010","Illusion_Session2",NA,27.6705166666667,"1920x969",1.86048,60.03,"chrome","107.0.0","Windows 10","Ebbinghaus",1,23,"Ebbinghaus_0.10000_0.28000",0.1,"Incongruent","1",0.28,"left",0,1.87
"S010","Illusion_Session2",NA,27.6705166666667,"1920x969",1.86048,60.03,"chrome","107.0.0","Windows 10","Ebbinghaus",1,24,"Ebbinghaus_0.10000_-0.11071",0.1,"Incongruent","-1",0.11071,"right",0,0.724
"S010","Illusion_Session2",NA,27.6705166666667,"1920x969",1.86048,60.03,"chrome","107.0.0","Windows 10","Ebbinghaus",1,25,"Ebbinghaus_-0.35714_-0.15857",-0.35714,"Congruent","-1",0.15857,"right",0,1.113
"S010","Illusion_Session2",NA,27.6705166666667,"1920x969",1.86048,60.03,"chrome","107.0.0","Windows 10","Ebbinghaus",1,26,"Ebbinghaus_-0.61429_0.11071",-0.61429,"Congruent","1",0.11071,"left",0,1.338
"S010","Illusion_Session2",NA,27.6705166666667,"1920x969",1.86048,60.03,"chrome","107.0.0","Windows 10","Ebbinghaus",1,27,"Ebbinghaus_0.87143_-0.2150",0.87143,"Incongruent","-1",0.215,"right",0,0.772
"S010","Illusion_Session2",NA,27.6705166666667,"1920x969",1.86048,60.03,"chrome","107.0.0","Windows 10","Ebbinghaus",1,28,"Ebbinghaus_-0.87143_0.28000",-0.87143,"Congruent","1",0.28,"left",0,0.658
"S010","Illusion_Session2",NA,27.6705166666667,"1920x969",1.86048,60.03,"chrome","107.0.0","Windows 10","Ebbinghaus",1,29,"Ebbinghaus_-0.87143_-0.11071",-0.87143,"Congruent","-1",0.11071,"right",0,0.852
"S010","Illusion_Session2",NA,27.6705166666667,"1920x969",1.86048,60.03,"chrome","107.0.0","Windows 10","Ebbinghaus",1,30,"Ebbinghaus_0.35714_0.28000",0.35714,"Incongruent","1",0.28,"left",0,0.681
"S010","Illusion_Session2",NA,27.6705166666667,"1920x969",1.86048,60.03,"chrome","107.0.0","Windows 10","Ebbinghaus",1,31,"Ebbinghaus_0.61429_0.21500",0.61429,"Incongruent","1",0.215,"left",0,1.069
"S010","Illusion_Session2",NA,27.6705166666667,"1920x969",1.86048,60.03,"chrome","107.0.0","Windows 10","Ebbinghaus",1,32,"Ebbinghaus_-0.35714_0.11071",-0.35714,"Congruent","1",0.11071,"left",0,1.029
"S010","Illusion_Session2",NA,27.6705166666667,"1920x969",1.86048,60.03,"chrome","107.0.0","Windows 10","Ebbinghaus",1,33,"Ebbinghaus_-0.61429_-0.2800",-0.61429,"Congruent","-1",0.28,"right",0,0.745
"S010","Illusion_Session2",NA,27.6705166666667,"1920x969",1.86048,60.03,"chrome","107.0.0","Windows 10","Ebbinghaus",1,34,"Ebbinghaus_-0.87143_-0.2800",-0.87143,"Congruent","-1",0.28,"right",0,0.874
"S010","Illusion_Session2",NA,27.6705166666667,"1920x969",1.86048,60.03,"chrome","107.0.0","Windows 10","Ebbinghaus",1,35,"Ebbinghaus_0.35714_-0.11071",0.35714,"Incongruent","-1",0.11071,"right",0,0.869
"S010","Illusion_Session2",NA,27.6705166666667,"1920x969",1.86048,60.03,"chrome","107.0.0","Windows 10","Ebbinghaus",1,36,"Ebbinghaus_-0.61429_-0.2150",-0.61429,"Congruent","-1",0.215,"right",0,0.743
"S010","Illusion_Session2",NA,27.6705166666667,"1920x969",1.86048,60.03,"chrome","107.0.0","Windows 10","Ebbinghaus",1,37,"Ebbinghaus_0.61429_-0.2150",0.61429,"Incongruent","-1",0.215,"right",0,2.262
"S010","Illusion_Session2",NA,27.6705166666667,"1920x969",1.86048,60.03,"chrome","107.0.0","Windows 10","Ebbinghaus",1,38,"Ebbinghaus_-0.61429_-0.15857",-0.61429,"Congruent","-1",0.15857,"right",0,1.027
"S010","Illusion_Session2",NA,27.6705166666667,"1920x969",1.86048,60.03,"chrome","107.0.0","Windows 10","Ebbinghaus",1,39,"Ebbinghaus_0.35714_-0.15857",0.35714,"Incongruent","-1",0.15857,"right",0,0.8
"S010","Illusion_Session2",NA,27.6705166666667,"1920x969",1.86048,60.03,"chrome","107.0.0","Windows 10","Ebbinghaus",1,40,"Ebbinghaus_-0.87143_-0.2150",-0.87143,"Congruent","-1",0.215,"left",1,0.545
"S010","Illusion_Session2",NA,27.6705166666667,"1920x969",1.86048,60.03,"chrome","107.0.0","Windows 10","Ebbinghaus",1,41,"Ebbinghaus_-0.1000_-0.2150",-0.1,"Congruent","-1",0.215,"right",0,0.684
"S010","Illusion_Session2",NA,27.6705166666667,"1920x969",1.86048,60.03,"chrome","107.0.0","Windows 10","Ebbinghaus",1,42,"Ebbinghaus_-0.87143_0.21500",-0.87143,"Congruent","1",0.215,"left",0,0.973
"S010","Illusion_Session2",NA,27.6705166666667,"1920x969",1.86048,60.03,"chrome","107.0.0","Windows 10","Ebbinghaus",1,43,"Ebbinghaus_0.35714_-0.2800",0.35714,"Incongruent","-1",0.28,"right",0,0.893
"S010","Illusion_Session2",NA,27.6705166666667,"1920x969",1.86048,60.03,"chrome","107.0.0","Windows 10","Ebbinghaus",1,44,"Ebbinghaus_0.87143_-0.15857",0.87143,"Incongruent","-1",0.15857,"right",0,0.995
"S010","Illusion_Session2",NA,27.6705166666667,"1920x969",1.86048,60.03,"chrome","107.0.0","Windows 10","Ebbinghaus",1,45,"Ebbinghaus_-0.35714_0.15857",-0.35714,"Congruent","1",0.15857,"left",0,1.731
"S010","Illusion_Session2",NA,27.6705166666667,"1920x969",1.86048,60.03,"chrome","107.0.0","Windows 10","Ebbinghaus",1,46,"Ebbinghaus_-0.1000_0.15857",-0.1,"Congruent","1",0.15857,"left",0,1.055
"S010","Illusion_Session2",NA,27.6705166666667,"1920x969",1.86048,60.03,"chrome","107.0.0","Windows 10","Ebbinghaus",1,47,"Ebbinghaus_-0.1000_0.11071",-0.1,"Congruent","1",0.11071,"left",0,2.131
"S010","Illusion_Session2",NA,27.6705166666667,"1920x969",1.86048,60.03,"chrome","107.0.0","Windows 10","Ebbinghaus",1,48,"Ebbinghaus_0.35714_0.15857",0.35714,"Incongruent","1",0.15857,"left",0,1.354
"S010","Illusion_Session2",NA,27.6705166666667,"1920x969",1.86048,60.03,"chrome","107.0.0","Windows 10","Ebbinghaus",1,49,"Ebbinghaus_0.61429_0.11071",0.61429,"Incongruent","1",0.11071,"left",0,1.914
"S010","Illusion_Session2",NA,27.6705166666667,"1920x969",1.86048,60.03,"chrome","107.0.0","Windows 10","Ebbinghaus",1,50,"Ebbinghaus_0.35714_0.21500",0.35714,"Incongruent","1",0.215,"left",0,1.426
"S010","Illusion_Session2",NA,27.6705166666667,"1920x969",1.86048,60.03,"chrome","107.0.0","Windows 10","Ebbinghaus",1,51,"Ebbinghaus_0.10000_0.21500",0.1,"Incongruent","1",0.215,"left",0,0.963
"S010","Illusion_Session2",NA,27.6705166666667,"1920x969",1.86048,60.03,"chrome","107.0.0","Windows 10","Ebbinghaus",1,52,"Ebbinghaus_-0.61429_0.28000",-0.61429,"Congruent","1",0.28,"left",0,1.057
"S010","Illusion_Session2",NA,27.6705166666667,"1920x969",1.86048,60.03,"chrome","107.0.0","Windows 10","Ebbinghaus",1,53,"Ebbinghaus_0.87143_0.15857",0.87143,"Incongruent","1",0.15857,"right",1,2.231
"S010","Illusion_Session2",NA,27.6705166666667,"1920x969",1.86048,60.03,"chrome","107.0.0","Windows 10","Ebbinghaus",1,54,"Ebbinghaus_0.35714_-0.2150",0.35714,"Incongruent","-1",0.215,"right",0,0.916
"S010","Illusion_Session2",NA,27.6705166666667,"1920x969",1.86048,60.03,"chrome","107.0.0","Windows 10","Ebbinghaus",1,55,"Ebbinghaus_0.10000_-0.2800",0.1,"Incongruent","-1",0.28,"right",0,2.104
"S010","Illusion_Session2",NA,27.6705166666667,"1920x969",1.86048,60.03,"chrome","107.0.0","Windows 10","Ebbinghaus",1,56,"Ebbinghaus_-0.1000_0.21500",-0.1,"Congruent","1",0.215,"left",0,1.323
"S010","Illusion_Session2",NA,27.6705166666667,"1920x969",1.86048,60.03,"chrome","107.0.0","Windows 10","Ebbinghaus",1,57,"Ebbinghaus_0.87143_-0.2800",0.87143,"Incongruent","-1",0.28,"right",0,0.734
"S010","Illusion_Session2",NA,27.6705166666667,"1920x969",1.86048,60.03,"chrome","107.0.0","Windows 10","Ebbinghaus",1,58,"Ebbinghaus_0.10000_0.15857",0.1,"Incongruent","1",0.15857,"left",0,0.731
"S010","Illusion_Session2",NA,27.6705166666667,"1920x969",1.86048,60.03,"chrome","107.0.0","Windows 10","Ebbinghaus",1,59,"Ebbinghaus_0.10000_-0.2150",0.1,"Incongruent","-1",0.215,"right",0,1.458
"S010","Illusion_Session2",NA,27.6705166666667,"1920x969",1.86048,60.03,"chrome","107.0.0","Windows 10","Ebbinghaus",1,60,"Ebbinghaus_0.87143_0.11071",0.87143,"Incongruent","1",0.11071,"left",0,0.706
"S010","Illusion_Session2",NA,27.6705166666667,"1920x969",1.86048,60.03,"chrome","107.0.0","Windows 10","Ebbinghaus",1,61,"Ebbinghaus_-0.35714_0.21500",-0.35714,"Congruent","1",0.215,"left",0,0.764
"S010","Illusion_Session2",NA,27.6705166666667,"1920x969",1.86048,60.03,"chrome","107.0.0","Windows 10","Ebbinghaus",1,62,"Ebbinghaus_0.87143_0.21500",0.87143,"Incongruent","1",0.215,"right",1,2.241
"S010","Illusion_Session2",NA,27.6705166666667,"1920x969",1.86048,60.03,"chrome","107.0.0","Windows 10","Ebbinghaus",1,63,"Ebbinghaus_0.35714_0.11071",0.35714,"Incongruent","1",0.11071,"left",0,1.316
"S010","Illusion_Session2",NA,27.6705166666667,"1920x969",1.86048,60.03,"chrome","107.0.0","Windows 10","Ebbinghaus",1,64,"Ebbinghaus_-0.35714_-0.11071",-0.35714,"Congruent","-1",0.11071,"left",1,0.725
"S010","Illusion_Session2",NA,27.6705166666667,"1920x969",1.86048,60.03,"chrome","107.0.0","Windows 10","Ebbinghaus",1,65,"Ebbinghaus_-0.35714_-0.2800",-0.35714,"Congruent","-1",0.28,"right",0,0.656
"S010","Illusion_Session2",NA,27.6705166666667,"1920x969",1.86048,60.03,"chrome","107.0.0","Windows 10","Ebbinghaus",1,66,"Ebbinghaus_0.10000_-0.15857",0.1,"Incongruent","-1",0.15857,"right",0,0.971
"S010","Illusion_Session2",NA,27.6705166666667,"1920x969",1.86048,60.03,"chrome","107.0.0","Windows 10","Ebbinghaus",1,67,"Ebbinghaus_0.61429_-0.15857",0.61429,"Incongruent","-1",0.15857,"right",0,0.579
"S010","Illusion_Session2",NA,27.6705166666667,"1920x969",1.86048,60.03,"chrome","107.0.0","Windows 10","Ebbinghaus",1,68,"Ebbinghaus_0.61429_-0.11071",0.61429,"Incongruent","-1",0.11071,"left",1,1.381
"S010","Illusion_Session2",NA,27.6705166666667,"1920x969",1.86048,60.03,"chrome","107.0.0","Windows 10","Ebbinghaus",1,69,"Ebbinghaus_0.61429_0.28000",0.61429,"Incongruent","1",0.28,"left",0,0.577
"S010","Illusion_Session2",NA,27.6705166666667,"1920x969",1.86048,60.03,"chrome","107.0.0","Windows 10","Ebbinghaus",1,70,"Ebbinghaus_0.61429_-0.2800",0.61429,"Incongruent","-1",0.28,"right",0,0.605
"S010","Illusion_Session2",NA,27.6705166666667,"1920x969",1.86048,60.03,"chrome","107.0.0","Windows 10","Ebbinghaus",1,71,"Ebbinghaus_0.87143_-0.11071",0.87143,"Incongruent","-1",0.11071,"right",0,0.556
"S010","Illusion_Session2",NA,27.6705166666667,"1920x969",1.86048,60.03,"chrome","107.0.0","Windows 10","Ebbinghaus",1,72,"Ebbinghaus_-0.61429_-0.11071",-0.61429,"Congruent","-1",0.11071,"right",0,1.316
"S010","Illusion_Session2",NA,27.6705166666667,"1920x969",1.86048,60.03,"chrome","107.0.0","Windows 10","Ebbinghaus",1,73,"Ebbinghaus_-0.87143_-0.15857",-0.87143,"Congruent","-1",0.15857,"left",1,0.959
"S010","Illusion_Session2",NA,27.6705166666667,"1920x969",1.86048,60.03,"chrome","107.0.0","Windows 10","Ebbinghaus",1,74,"Ebbinghaus_0.10000_0.11071",0.1,"Incongruent","1",0.11071,"left",0,1.758
"S010","Illusion_Session2",NA,27.6705166666667,"1920x969",1.86048,60.03,"chrome","107.0.0","Windows 10","Ebbinghaus",1,75,"Ebbinghaus_-0.1000_-0.15857",-0.1,"Congruent","-1",0.15857,"right",0,0.81
"S010","Illusion_Session2",NA,27.6705166666667,"1920x969",1.86048,60.03,"chrome","107.0.0","Windows 10","Ebbinghaus",1,76,"Ebbinghaus_-0.61429_0.15857",-0.61429,"Congruent","1",0.15857,"left",0,0.776
"S010","Illusion_Session2",NA,27.6705166666667,"1920x969",1.86048,60.03,"chrome","107.0.0","Windows 10","Ebbinghaus",1,77,"Ebbinghaus_-0.1000_0.28000",-0.1,"Congruent","1",0.28,"left",0,1.227
"S010","Illusion_Session2",NA,27.6705166666667,"1920x969",1.86048,60.03,"chrome","107.0.0","Windows 10","Ebbinghaus",1,78,"Ebbinghaus_-0.35714_-0.2150",-0.35714,"Congruent","-1",0.215,"right",0,0.843
"S010","Illusion_Session2",NA,27.6705166666667,"1920x969",1.86048,60.03,"chrome","107.0.0","Windows 10","Ebbinghaus",1,79,"Ebbinghaus_-0.1000_-0.11071",-0.1,"Congruent","-1",0.11071,"right",0,0.568
"S010","Illusion_Session2",NA,27.6705166666667,"1920x969",1.86048,60.03,"chrome","107.0.0","Windows 10","Ebbinghaus",1,80,"Ebbinghaus_-0.1000_-0.2800",-0.1,"Congruent","-1",0.28,"right",0,1.12
"S010","Illusion_Session2",NA,27.6705166666667,"1920x969",1.86048,60.03,"chrome","107.0.0","Windows 10","Ebbinghaus",1,81,"Ebbinghaus_-0.87143_0.11071",-0.87143,"Congruent","1",0.11071,"left",0,0.852
"S010","Illusion_Session2",NA,27.6705166666667,"1920x969",1.86048,60.03,"chrome","107.0.0","Windows 10","Ebbinghaus",1,82,"Ebbinghaus_-0.61429_0.21500",-0.61429,"Congruent","1",0.215,"left",0,1.039
"S010","Illusion_Session2",NA,27.6705166666667,"1920x969",1.86048,60.03,"chrome","107.0.0","Windows 10","MullerLyer",1,1,"MullerLyer_14.12857_0.35000",14.12857,"Incongruent","1",0.35,"up",0,0.974
"S010","Illusion_Session2",NA,27.6705166666667,"1920x969",1.86048,60.03,"chrome","107.0.0","Windows 10","MullerLyer",1,2,"MullerLyer_20.04286_0.23665",20.04286,"Incongruent","1",0.23665,"up",0,2.462
"S010","Illusion_Session2",NA,27.6705166666667,"1920x969",1.86048,60.03,"chrome","107.0.0","Windows 10","MullerLyer",1,3,"MullerLyer_-14.12857_-0.23665",-14.12857,"Congruent","-1",0.23665,"down",0,0.653
"S010","Illusion_Session2",NA,27.6705166666667,"1920x969",1.86048,60.03,"chrome","107.0.0","Windows 10","MullerLyer",1,4,"MullerLyer_-14.12857_0.14541",-14.12857,"Congruent","1",0.14541,"up",0,0.598
"S010","Illusion_Session2",NA,27.6705166666667,"1920x969",1.86048,60.03,"chrome","107.0.0","Windows 10","MullerLyer",1,5,"MullerLyer_-20.04286_0.07627",-20.04286,"Congruent","1",0.07627,"up",0,0.605
"S010","Illusion_Session2",NA,27.6705166666667,"1920x969",1.86048,60.03,"chrome","107.0.0","Windows 10","MullerLyer",1,6,"MullerLyer_-8.21429_0.35000",-8.21429,"Congruent","1",0.35,"up",0,0.587
"S010","Illusion_Session2",NA,27.6705166666667,"1920x969",1.86048,60.03,"chrome","107.0.0","Windows 10","MullerLyer",1,7,"MullerLyer_-14.12857_-0.07627",-14.12857,"Congruent","-1",0.07627,"down",0,0.642
"S010","Illusion_Session2",NA,27.6705166666667,"1920x969",1.86048,60.03,"chrome","107.0.0","Windows 10","MullerLyer",1,8,"MullerLyer_2.30000_0.07627",2.3,"Incongruent","1",0.07627,"up",0,1.351
"S010","Illusion_Session2",NA,27.6705166666667,"1920x969",1.86048,60.03,"chrome","107.0.0","Windows 10","MullerLyer",1,9,"MullerLyer_8.21429_-0.07627",8.21429,"Incongruent","-1",0.07627,"down",0,1.317
"S010","Illusion_Session2",NA,27.6705166666667,"1920x969",1.86048,60.03,"chrome","107.0.0","Windows 10","MullerLyer",1,10,"MullerLyer_14.12857_-0.14541",14.12857,"Incongruent","-1",0.14541,"up",1,0.686
"S010","Illusion_Session2",NA,27.6705166666667,"1920x969",1.86048,60.03,"chrome","107.0.0","Windows 10","MullerLyer",1,11,"MullerLyer_-8.21429_0.14541",-8.21429,"Congruent","1",0.14541,"up",0,0.798
"S010","Illusion_Session2",NA,27.6705166666667,"1920x969",1.86048,60.03,"chrome","107.0.0","Windows 10","MullerLyer",1,12,"MullerLyer_-2.3000_0.07627",-2.3,"Congruent","1",0.07627,"up",0,1.376
"S010","Illusion_Session2",NA,27.6705166666667,"1920x969",1.86048,60.03,"chrome","107.0.0","Windows 10","MullerLyer",1,13,"MullerLyer_2.30000_0.14541",2.3,"Incongruent","1",0.14541,"up",0,1.57
"S010","Illusion_Session2",NA,27.6705166666667,"1920x969",1.86048,60.03,"chrome","107.0.0","Windows 10","MullerLyer",1,14,"MullerLyer_-20.04286_0.14541",-20.04286,"Congruent","1",0.14541,"up",0,0.659
"S010","Illusion_Session2",NA,27.6705166666667,"1920x969",1.86048,60.03,"chrome","107.0.0","Windows 10","MullerLyer",1,15,"MullerLyer_8.21429_0.14541",8.21429,"Incongruent","1",0.14541,"up",0,3.254
"S010","Illusion_Session2",NA,27.6705166666667,"1920x969",1.86048,60.03,"chrome","107.0.0","Windows 10","MullerLyer",1,16,"MullerLyer_-20.04286_-0.07627",-20.04286,"Congruent","-1",0.07627,"down",0,0.659
"S010","Illusion_Session2",NA,27.6705166666667,"1920x969",1.86048,60.03,"chrome","107.0.0","Windows 10","MullerLyer",1,17,"MullerLyer_-20.04286_-0.3500",-20.04286,"Congruent","-1",0.35,"down",0,0.501
"S010","Illusion_Session2",NA,27.6705166666667,"1920x969",1.86048,60.03,"chrome","107.0.0","Windows 10","MullerLyer",1,18,"MullerLyer_2.30000_-0.3500",2.3,"Incongruent","-1",0.35,"down",0,0.53
"S010","Illusion_Session2",NA,27.6705166666667,"1920x969",1.86048,60.03,"chrome","107.0.0","Windows 10","MullerLyer",1,19,"MullerLyer_8.21429_-0.14541",8.21429,"Incongruent","-1",0.14541,"down",0,1.373
"S010","Illusion_Session2",NA,27.6705166666667,"1920x969",1.86048,60.03,"chrome","107.0.0","Windows 10","MullerLyer",1,20,"MullerLyer_-2.3000_0.35000",-2.3,"Congruent","1",0.35,"up",0,0.636
"S010","Illusion_Session2",NA,27.6705166666667,"1920x969",1.86048,60.03,"chrome","107.0.0","Windows 10","MullerLyer",1,21,"MullerLyer_20.04286_0.07627",20.04286,"Incongruent","1",0.07627,"down",1,0.51
"S010","Illusion_Session2",NA,27.6705166666667,"1920x969",1.86048,60.03,"chrome","107.0.0","Windows 10","MullerLyer",1,22,"MullerLyer_-14.12857_0.23665",-14.12857,"Congruent","1",0.23665,"up",0,0.618
"S010","Illusion_Session2",NA,27.6705166666667,"1920x969",1.86048,60.03,"chrome","107.0.0","Windows 10","MullerLyer",1,23,"MullerLyer_-14.12857_-0.14541",-14.12857,"Congruent","-1",0.14541,"down",0,0.532
"S010","Illusion_Session2",NA,27.6705166666667,"1920x969",1.86048,60.03,"chrome","107.0.0","Windows 10","MullerLyer",1,24,"MullerLyer_8.21429_0.35000",8.21429,"Incongruent","1",0.35,"up",0,0.709
"S010","Illusion_Session2",NA,27.6705166666667,"1920x969",1.86048,60.03,"chrome","107.0.0","Windows 10","MullerLyer",1,25,"MullerLyer_-8.21429_-0.3500",-8.21429,"Congruent","-1",0.35,"down",0,0.771
"S010","Illusion_Session2",NA,27.6705166666667,"1920x969",1.86048,60.03,"chrome","107.0.0","Windows 10","MullerLyer",1,26,"MullerLyer_14.12857_0.07627",14.12857,"Incongruent","1",0.07627,"down",1,0.52
"S010","Illusion_Session2",NA,27.6705166666667,"1920x969",1.86048,60.03,"chrome","107.0.0","Windows 10","MullerLyer",1,27,"MullerLyer_20.04286_-0.3500",20.04286,"Incongruent","-1",0.35,"down",0,1.124
"S010","Illusion_Session2",NA,27.6705166666667,"1920x969",1.86048,60.03,"chrome","107.0.0","Windows 10","MullerLyer",1,28,"MullerLyer_2.30000_-0.07627",2.3,"Incongruent","-1",0.07627,"down",0,0.762
"S010","Illusion_Session2",NA,27.6705166666667,"1920x969",1.86048,60.03,"chrome","107.0.0","Windows 10","MullerLyer",1,29,"MullerLyer_14.12857_0.23665",14.12857,"Incongruent","1",0.23665,"up",0,0.718
"S010","Illusion_Session2",NA,27.6705166666667,"1920x969",1.86048,60.03,"chrome","107.0.0","Windows 10","MullerLyer",1,30,"MullerLyer_-8.21429_-0.23665",-8.21429,"Congruent","-1",0.23665,"down",0,0.626
"S010","Illusion_Session2",NA,27.6705166666667,"1920x969",1.86048,60.03,"chrome","107.0.0","Windows 10","MullerLyer",1,31,"MullerLyer_-20.04286_0.35000",-20.04286,"Congruent","1",0.35,"up",0,0.58
"S010","Illusion_Session2",NA,27.6705166666667,"1920x969",1.86048,60.03,"chrome","107.0.0","Windows 10","MullerLyer",1,32,"MullerLyer_-2.3000_-0.23665",-2.3,"Congruent","-1",0.23665,"down",0,0.523
"S010","Illusion_Session2",NA,27.6705166666667,"1920x969",1.86048,60.03,"chrome","107.0.0","Windows 10","MullerLyer",1,33,"MullerLyer_-2.3000_0.23665",-2.3,"Congruent","1",0.23665,"up",0,0.698
"S010","Illusion_Session2",NA,27.6705166666667,"1920x969",1.86048,60.03,"chrome","107.0.0","Windows 10","MullerLyer",1,34,"MullerLyer_20.04286_-0.14541",20.04286,"Incongruent","-1",0.14541,"up",1,0.519
"S010","Illusion_Session2",NA,27.6705166666667,"1920x969",1.86048,60.03,"chrome","107.0.0","Windows 10","MullerLyer",1,35,"MullerLyer_14.12857_-0.3500",14.12857,"Incongruent","-1",0.35,"down",0,0.699
"S010","Illusion_Session2",NA,27.6705166666667,"1920x969",1.86048,60.03,"chrome","107.0.0","Windows 10","MullerLyer",1,36,"MullerLyer_-20.04286_0.23665",-20.04286,"Congruent","1",0.23665,"up",0,0.642
"S010","Illusion_Session2",NA,27.6705166666667,"1920x969",1.86048,60.03,"chrome","107.0.0","Windows 10","MullerLyer",1,37,"MullerLyer_20.04286_-0.07627",20.04286,"Incongruent","-1",0.07627,"up",1,0.971
"S010","Illusion_Session2",NA,27.6705166666667,"1920x969",1.86048,60.03,"chrome","107.0.0","Windows 10","MullerLyer",1,38,"MullerLyer_8.21429_-0.3500",8.21429,"Incongruent","-1",0.35,"down",0,0.678
"S010","Illusion_Session2",NA,27.6705166666667,"1920x969",1.86048,60.03,"chrome","107.0.0","Windows 10","MullerLyer",1,39,"MullerLyer_-2.3000_-0.3500",-2.3,"Congruent","-1",0.35,"down",0,0.707
"S010","Illusion_Session2",NA,27.6705166666667,"1920x969",1.86048,60.03,"chrome","107.0.0","Windows 10","MullerLyer",1,40,"MullerLyer_-2.3000_0.14541",-2.3,"Congruent","1",0.14541,"up",0,0.683
"S010","Illusion_Session2",NA,27.6705166666667,"1920x969",1.86048,60.03,"chrome","107.0.0","Windows 10","MullerLyer",1,41,"MullerLyer_-8.21429_0.23665",-8.21429,"Congruent","1",0.23665,"up",0,1.063
"S010","Illusion_Session2",NA,27.6705166666667,"1920x969",1.86048,60.03,"chrome","107.0.0","Windows 10","MullerLyer",1,42,"MullerLyer_8.21429_-0.23665",8.21429,"Incongruent","-1",0.23665,"down",0,1.529
"S010","Illusion_Session2",NA,27.6705166666667,"1920x969",1.86048,60.03,"chrome","107.0.0","Windows 10","MullerLyer",1,43,"MullerLyer_20.04286_-0.23665",20.04286,"Incongruent","-1",0.23665,"down",0,1.921
"S010","Illusion_Session2",NA,27.6705166666667,"1920x969",1.86048,60.03,"chrome","107.0.0","Windows 10","MullerLyer",1,44,"MullerLyer_8.21429_0.07627",8.21429,"Incongruent","1",0.07627,"down",1,1.788
"S010","Illusion_Session2",NA,27.6705166666667,"1920x969",1.86048,60.03,"chrome","107.0.0","Windows 10","MullerLyer",1,45,"MullerLyer_14.12857_-0.07627",14.12857,"Incongruent","-1",0.07627,"up",1,1.424
"S010","Illusion_Session2",NA,27.6705166666667,"1920x969",1.86048,60.03,"chrome","107.0.0","Windows 10","MullerLyer",1,46,"MullerLyer_-8.21429_-0.07627",-8.21429,"Congruent","-1",0.07627,"down",0,0.514
"S010","Illusion_Session2",NA,27.6705166666667,"1920x969",1.86048,60.03,"chrome","107.0.0","Windows 10","MullerLyer",1,47,"MullerLyer_2.30000_0.23665",2.3,"Incongruent","1",0.23665,"up",0,0.884
"S010","Illusion_Session2",NA,27.6705166666667,"1920x969",1.86048,60.03,"chrome","107.0.0","Windows 10","MullerLyer",1,48,"MullerLyer_14.12857_0.14541",14.12857,"Incongruent","1",0.14541,"down",1,0.578
"S010","Illusion_Session2",NA,27.6705166666667,"1920x969",1.86048,60.03,"chrome","107.0.0","Windows 10","MullerLyer",1,49,"MullerLyer_2.30000_0.35000",2.3,"Incongruent","1",0.35,"up",0,0.916
"S010","Illusion_Session2",NA,27.6705166666667,"1920x969",1.86048,60.03,"chrome","107.0.0","Windows 10","MullerLyer",1,50,"MullerLyer_-8.21429_0.07627",-8.21429,"Congruent","1",0.07627,"up",0,0.892
"S010","Illusion_Session2",NA,27.6705166666667,"1920x969",1.86048,60.03,"chrome","107.0.0","Windows 10","MullerLyer",1,51,"MullerLyer_20.04286_0.14541",20.04286,"Incongruent","1",0.14541,"down",1,0.513
"S010","Illusion_Session2",NA,27.6705166666667,"1920x969",1.86048,60.03,"chrome","107.0.0","Windows 10","MullerLyer",1,52,"MullerLyer_14.12857_-0.23665",14.12857,"Incongruent","-1",0.23665,"down",0,0.871
"S010","Illusion_Session2",NA,27.6705166666667,"1920x969",1.86048,60.03,"chrome","107.0.0","Windows 10","MullerLyer",1,53,"MullerLyer_8.21429_0.23665",8.21429,"Incongruent","1",0.23665,"up",0,1.135
"S010","Illusion_Session2",NA,27.6705166666667,"1920x969",1.86048,60.03,"chrome","107.0.0","Windows 10","MullerLyer",1,54,"MullerLyer_-14.12857_-0.3500",-14.12857,"Congruent","-1",0.35,"down",0,0.589
"S010","Illusion_Session2",NA,27.6705166666667,"1920x969",1.86048,60.03,"chrome","107.0.0","Windows 10","MullerLyer",1,55,"MullerLyer_-14.12857_0.35000",-14.12857,"Congruent","1",0.35,"up",0,0.523
"S010","Illusion_Session2",NA,27.6705166666667,"1920x969",1.86048,60.03,"chrome","107.0.0","Windows 10","MullerLyer",1,56,"MullerLyer_-20.04286_-0.14541",-20.04286,"Congruent","-1",0.14541,"down",0,0.658
"S010","Illusion_Session2",NA,27.6705166666667,"1920x969",1.86048,60.03,"chrome","107.0.0","Windows 10","MullerLyer",1,57,"MullerLyer_-20.04286_-0.23665",-20.04286,"Congruent","-1",0.23665,"down",0,0.508
"S010","Illusion_Session2",NA,27.6705166666667,"1920x969",1.86048,60.03,"chrome","107.0.0","Windows 10","MullerLyer",1,58,"MullerLyer_-2.3000_-0.14541",-2.3,"Congruent","-1",0.14541,"down",0,0.869
"S010","Illusion_Session2",NA,27.6705166666667,"1920x969",1.86048,60.03,"chrome","107.0.0","Windows 10","MullerLyer",1,59,"MullerLyer_-14.12857_0.07627",-14.12857,"Congruent","1",0.07627,"up",0,0.68
"S010","Illusion_Session2",NA,27.6705166666667,"1920x969",1.86048,60.03,"chrome","107.0.0","Windows 10","MullerLyer",1,60,"MullerLyer_-2.3000_-0.07627",-2.3,"Congruent","-1",0.07627,"down",0,0.714
"S010","Illusion_Session2",NA,27.6705166666667,"1920x969",1.86048,60.03,"chrome","107.0.0","Windows 10","MullerLyer",1,61,"MullerLyer_2.30000_-0.23665",2.3,"Incongruent","-1",0.23665,"down",0,0.601
"S010","Illusion_Session2",NA,27.6705166666667,"1920x969",1.86048,60.03,"chrome","107.0.0","Windows 10","MullerLyer",1,62,"MullerLyer_-8.21429_-0.14541",-8.21429,"Congruent","-1",0.14541,"down",0,1.213
"S010","Illusion_Session2",NA,27.6705166666667,"1920x969",1.86048,60.03,"chrome","107.0.0","Windows 10","MullerLyer",1,63,"MullerLyer_2.30000_-0.14541",2.3,"Incongruent","-1",0.14541,"down",0,1.376
"S010","Illusion_Session2",NA,27.6705166666667,"1920x969",1.86048,60.03,"chrome","107.0.0","Windows 10","MullerLyer",1,64,"MullerLyer_20.04286_0.35000",20.04286,"Incongruent","1",0.35,"up",0,2.175
"S010","Illusion_Session2",NA,27.6705166666667,"1920x969",1.86048,60.03,"chrome","107.0.0","Windows 10","VerticalHorizontal",1,1,"VerticalHorizontal_-11.78571_-0.2250",-11.78571,"Congruent","-1",0.225,"right",0,0.798
"S010","Illusion_Session2",NA,27.6705166666667,"1920x969",1.86048,60.03,"chrome","107.0.0","Windows 10","VerticalHorizontal",1,2,"VerticalHorizontal_-3.3000_-0.1096",-3.3,"Congruent","-1",0.1096,"right",0,0.931
"S010","Illusion_Session2",NA,27.6705166666667,"1920x969",1.86048,60.03,"chrome","107.0.0","Windows 10","VerticalHorizontal",1,3,"VerticalHorizontal_-3.3000_-0.0673",-3.3,"Congruent","-1",0.0673,"right",0,0.625
"S010","Illusion_Session2",NA,27.6705166666667,"1920x969",1.86048,60.03,"chrome","107.0.0","Windows 10","VerticalHorizontal",1,4,"VerticalHorizontal_-11.78571_-0.0673",-11.78571,"Congruent","-1",0.0673,"right",0,1.086
"S010","Illusion_Session2",NA,27.6705166666667,"1920x969",1.86048,60.03,"chrome","107.0.0","Windows 10","VerticalHorizontal",1,5,"VerticalHorizontal_-28.75714_-0.2250",-28.75714,"Congruent","-1",0.225,"right",0,0.587
"S010","Illusion_Session2",NA,27.6705166666667,"1920x969",1.86048,60.03,"chrome","107.0.0","Windows 10","VerticalHorizontal",1,6,"VerticalHorizontal_28.75714_-0.16217",28.75714,"Incongruent","-1",0.16217,"right",0,1.152
"S010","Illusion_Session2",NA,27.6705166666667,"1920x969",1.86048,60.03,"chrome","107.0.0","Windows 10","VerticalHorizontal",1,7,"VerticalHorizontal_20.27143_-0.0673",20.27143,"Incongruent","-1",0.0673,"right",0,0.882
"S010","Illusion_Session2",NA,27.6705166666667,"1920x969",1.86048,60.03,"chrome","107.0.0","Windows 10","VerticalHorizontal",1,8,"VerticalHorizontal_3.30000_-0.16217",3.3,"Incongruent","-1",0.16217,"right",0,0.653
"S010","Illusion_Session2",NA,27.6705166666667,"1920x969",1.86048,60.03,"chrome","107.0.0","Windows 10","VerticalHorizontal",1,9,"VerticalHorizontal_20.27143_-0.2250",20.27143,"Incongruent","-1",0.225,"right",0,0.85
"S010","Illusion_Session2",NA,27.6705166666667,"1920x969",1.86048,60.03,"chrome","107.0.0","Windows 10","VerticalHorizontal",1,10,"VerticalHorizontal_-20.27143_-0.1096",-20.27143,"Congruent","-1",0.1096,"right",0,1.061
"S010","Illusion_Session2",NA,27.6705166666667,"1920x969",1.86048,60.03,"chrome","107.0.0","Windows 10","VerticalHorizontal",1,11,"VerticalHorizontal_-20.27143_0.10960",-20.27143,"Congruent","1",0.1096,"left",0,1.278
"S010","Illusion_Session2",NA,27.6705166666667,"1920x969",1.86048,60.03,"chrome","107.0.0","Windows 10","VerticalHorizontal",1,12,"VerticalHorizontal_3.30000_0.10960",3.3,"Incongruent","1",0.1096,"left",0,0.745
"S010","Illusion_Session2",NA,27.6705166666667,"1920x969",1.86048,60.03,"chrome","107.0.0","Windows 10","VerticalHorizontal",1,13,"VerticalHorizontal_3.30000_-0.2250",3.3,"Incongruent","-1",0.225,"right",0,0.851
"S010","Illusion_Session2",NA,27.6705166666667,"1920x969",1.86048,60.03,"chrome","107.0.0","Windows 10","VerticalHorizontal",1,14,"VerticalHorizontal_20.27143_0.22500",20.27143,"Incongruent","1",0.225,"left",0,1.086
"S010","Illusion_Session2",NA,27.6705166666667,"1920x969",1.86048,60.03,"chrome","107.0.0","Windows 10","VerticalHorizontal",1,15,"VerticalHorizontal_-20.27143_0.06730",-20.27143,"Congruent","1",0.0673,"left",0,1.619
"S010","Illusion_Session2",NA,27.6705166666667,"1920x969",1.86048,60.03,"chrome","107.0.0","Windows 10","VerticalHorizontal",1,16,"VerticalHorizontal_28.75714_0.10960",28.75714,"Incongruent","1",0.1096,"right",1,1.305
"S010","Illusion_Session2",NA,27.6705166666667,"1920x969",1.86048,60.03,"chrome","107.0.0","Windows 10","VerticalHorizontal",1,17,"VerticalHorizontal_-3.3000_-0.2250",-3.3,"Congruent","-1",0.225,"right",0,0.74
"S010","Illusion_Session2",NA,27.6705166666667,"1920x969",1.86048,60.03,"chrome","107.0.0","Windows 10","VerticalHorizontal",1,18,"VerticalHorizontal_-28.75714_0.22500",-28.75714,"Congruent","1",0.225,"left",0,0.598
"S010","Illusion_Session2",NA,27.6705166666667,"1920x969",1.86048,60.03,"chrome","107.0.0","Windows 10","VerticalHorizontal",1,19,"VerticalHorizontal_20.27143_0.10960",20.27143,"Incongruent","1",0.1096,"right",1,0.748
"S010","Illusion_Session2",NA,27.6705166666667,"1920x969",1.86048,60.03,"chrome","107.0.0","Windows 10","VerticalHorizontal",1,20,"VerticalHorizontal_-3.3000_0.22500",-3.3,"Congruent","1",0.225,"left",0,0.59
"S010","Illusion_Session2",NA,27.6705166666667,"1920x969",1.86048,60.03,"chrome","107.0.0","Windows 10","VerticalHorizontal",1,21,"VerticalHorizontal_20.27143_-0.1096",20.27143,"Incongruent","-1",0.1096,"right",0,0.835
"S010","Illusion_Session2",NA,27.6705166666667,"1920x969",1.86048,60.03,"chrome","107.0.0","Windows 10","VerticalHorizontal",1,22,"VerticalHorizontal_-3.3000_0.16217",-3.3,"Congruent","1",0.16217,"left",0,0.567
"S010","Illusion_Session2",NA,27.6705166666667,"1920x969",1.86048,60.03,"chrome","107.0.0","Windows 10","VerticalHorizontal",1,23,"VerticalHorizontal_-3.3000_-0.16217",-3.3,"Congruent","-1",0.16217,"right",0,0.566
"S010","Illusion_Session2",NA,27.6705166666667,"1920x969",1.86048,60.03,"chrome","107.0.0","Windows 10","VerticalHorizontal",1,24,"VerticalHorizontal_3.30000_0.22500",3.3,"Incongruent","1",0.225,"left",0,0.529
"S010","Illusion_Session2",NA,27.6705166666667,"1920x969",1.86048,60.03,"chrome","107.0.0","Windows 10","VerticalHorizontal",1,25,"VerticalHorizontal_11.78571_0.16217",11.78571,"Incongruent","1",0.16217,"right",1,0.931
"S010","Illusion_Session2",NA,27.6705166666667,"1920x969",1.86048,60.03,"chrome","107.0.0","Windows 10","VerticalHorizontal",1,26,"VerticalHorizontal_3.30000_0.16217",3.3,"Incongruent","1",0.16217,"left",0,1.702
"S010","Illusion_Session2",NA,27.6705166666667,"1920x969",1.86048,60.03,"chrome","107.0.0","Windows 10","VerticalHorizontal",1,27,"VerticalHorizontal_-28.75714_-0.16217",-28.75714,"Congruent","-1",0.16217,"right",0,0.536
"S010","Illusion_Session2",NA,27.6705166666667,"1920x969",1.86048,60.03,"chrome","107.0.0","Windows 10","VerticalHorizontal",1,28,"VerticalHorizontal_-20.27143_0.16217",-20.27143,"Congruent","1",0.16217,"left",0,0.494
"S010","Illusion_Session2",NA,27.6705166666667,"1920x969",1.86048,60.03,"chrome","107.0.0","Windows 10","VerticalHorizontal",1,29,"VerticalHorizontal_-11.78571_0.06730",-11.78571,"Congruent","1",0.0673,"left",0,0.457
"S010","Illusion_Session2",NA,27.6705166666667,"1920x969",1.86048,60.03,"chrome","107.0.0","Windows 10","VerticalHorizontal",1,30,"VerticalHorizontal_-28.75714_0.16217",-28.75714,"Congruent","1",0.16217,"left",0,0.482
"S010","Illusion_Session2",NA,27.6705166666667,"1920x969",1.86048,60.03,"chrome","107.0.0","Windows 10","VerticalHorizontal",1,31,"VerticalHorizontal_-3.3000_0.10960",-3.3,"Congruent","1",0.1096,"left",0,0.665
"S010","Illusion_Session2",NA,27.6705166666667,"1920x969",1.86048,60.03,"chrome","107.0.0","Windows 10","VerticalHorizontal",1,32,"VerticalHorizontal_11.78571_-0.0673",11.78571,"Incongruent","-1",0.0673,"right",0,0.754
"S010","Illusion_Session2",NA,27.6705166666667,"1920x969",1.86048,60.03,"chrome","107.0.0","Windows 10","VerticalHorizontal",1,33,"VerticalHorizontal_3.30000_-0.1096",3.3,"Incongruent","-1",0.1096,"right",0,0.839
"S010","Illusion_Session2",NA,27.6705166666667,"1920x969",1.86048,60.03,"chrome","107.0.0","Windows 10","VerticalHorizontal",1,34,"VerticalHorizontal_-20.27143_-0.16217",-20.27143,"Congruent","-1",0.16217,"right",0,0.578
"S010","Illusion_Session2",NA,27.6705166666667,"1920x969",1.86048,60.03,"chrome","107.0.0","Windows 10","VerticalHorizontal",1,35,"VerticalHorizontal_-20.27143_-0.2250",-20.27143,"Congruent","-1",0.225,"right",0,0.516
"S010","Illusion_Session2",NA,27.6705166666667,"1920x969",1.86048,60.03,"chrome","107.0.0","Windows 10","VerticalHorizontal",1,36,"VerticalHorizontal_-11.78571_0.16217",-11.78571,"Congruent","1",0.16217,"left",0,0.482
"S010","Illusion_Session2",NA,27.6705166666667,"1920x969",1.86048,60.03,"chrome","107.0.0","Windows 10","VerticalHorizontal",1,37,"VerticalHorizontal_3.30000_-0.0673",3.3,"Incongruent","-1",0.0673,"right",0,0.568
"S010","Illusion_Session2",NA,27.6705166666667,"1920x969",1.86048,60.03,"chrome","107.0.0","Windows 10","VerticalHorizontal",1,38,"VerticalHorizontal_28.75714_0.06730",28.75714,"Incongruent","1",0.0673,"right",1,0.682
"S010","Illusion_Session2",NA,27.6705166666667,"1920x969",1.86048,60.03,"chrome","107.0.0","Windows 10","VerticalHorizontal",1,39,"VerticalHorizontal_11.78571_-0.2250",11.78571,"Incongruent","-1",0.225,"right",0,0.849
"S010","Illusion_Session2",NA,27.6705166666667,"1920x969",1.86048,60.03,"chrome","107.0.0","Windows 10","VerticalHorizontal",1,40,"VerticalHorizontal_11.78571_-0.16217",11.78571,"Incongruent","-1",0.16217,"right",0,0.855
"S010","Illusion_Session2",NA,27.6705166666667,"1920x969",1.86048,60.03,"chrome","107.0.0","Windows 10","VerticalHorizontal",1,41,"VerticalHorizontal_-28.75714_-0.0673",-28.75714,"Congruent","-1",0.0673,"right",0,0.435
"S010","Illusion_Session2",NA,27.6705166666667,"1920x969",1.86048,60.03,"chrome","107.0.0","Windows 10","VerticalHorizontal",1,42,"VerticalHorizontal_-28.75714_0.06730",-28.75714,"Congruent","1",0.0673,"left",0,0.578
"S010","Illusion_Session2",NA,27.6705166666667,"1920x969",1.86048,60.03,"chrome","107.0.0","Windows 10","VerticalHorizontal",1,43,"VerticalHorizontal_-11.78571_-0.1096",-11.78571,"Congruent","-1",0.1096,"right",0,0.67
"S010","Illusion_Session2",NA,27.6705166666667,"1920x969",1.86048,60.03,"chrome","107.0.0","Windows 10","VerticalHorizontal",1,44,"VerticalHorizontal_20.27143_0.06730",20.27143,"Incongruent","1",0.0673,"right",1,1.014
"S010","Illusion_Session2",NA,27.6705166666667,"1920x969",1.86048,60.03,"chrome","107.0.0","Windows 10","VerticalHorizontal",1,45,"VerticalHorizontal_20.27143_0.16217",20.27143,"Incongruent","1",0.16217,"left",0,1.302
"S010","Illusion_Session2",NA,27.6705166666667,"1920x969",1.86048,60.03,"chrome","107.0.0","Windows 10","VerticalHorizontal",1,46,"VerticalHorizontal_28.75714_0.16217",28.75714,"Incongruent","1",0.16217,"right",1,1.646
"S010","Illusion_Session2",NA,27.6705166666667,"1920x969",1.86048,60.03,"chrome","107.0.0","Windows 10","VerticalHorizontal",1,47,"VerticalHorizontal_-3.3000_0.06730",-3.3,"Congruent","1",0.0673,"left",0,1.29
"S010","Illusion_Session2",NA,27.6705166666667,"1920x969",1.86048,60.03,"chrome","107.0.0","Windows 10","VerticalHorizontal",1,48,"VerticalHorizontal_11.78571_0.10960",11.78571,"Incongruent","1",0.1096,"left",0,1.357
"S010","Illusion_Session2",NA,27.6705166666667,"1920x969",1.86048,60.03,"chrome","107.0.0","Windows 10","VerticalHorizontal",1,49,"VerticalHorizontal_20.27143_-0.16217",20.27143,"Incongruent","-1",0.16217,"right",0,0.953
"S010","Illusion_Session2",NA,27.6705166666667,"1920x969",1.86048,60.03,"chrome","107.0.0","Windows 10","VerticalHorizontal",1,50,"VerticalHorizontal_-11.78571_0.22500",-11.78571,"Congruent","1",0.225,"left",0,0.509
"S010","Illusion_Session2",NA,27.6705166666667,"1920x969",1.86048,60.03,"chrome","107.0.0","Windows 10","VerticalHorizontal",1,51,"VerticalHorizontal_11.78571_-0.1096",11.78571,"Incongruent","-1",0.1096,"right",0,0.782
"S010","Illusion_Session2",NA,27.6705166666667,"1920x969",1.86048,60.03,"chrome","107.0.0","Windows 10","VerticalHorizontal",1,52,"VerticalHorizontal_-28.75714_0.10960",-28.75714,"Congruent","1",0.1096,"left",0,0.494
"S010","Illusion_Session2",NA,27.6705166666667,"1920x969",1.86048,60.03,"chrome","107.0.0","Windows 10","VerticalHorizontal",1,53,"VerticalHorizontal_28.75714_-0.0673",28.75714,"Incongruent","-1",0.0673,"right",0,2.396
"S010","Illusion_Session2",NA,27.6705166666667,"1920x969",1.86048,60.03,"chrome","107.0.0","Windows 10","VerticalHorizontal",1,54,"VerticalHorizontal_3.30000_0.06730",3.3,"Incongruent","1",0.0673,"left",0,0.527
"S010","Illusion_Session2",NA,27.6705166666667,"1920x969",1.86048,60.03,"chrome","107.0.0","Windows 10","VerticalHorizontal",1,55,"VerticalHorizontal_11.78571_0.22500",11.78571,"Incongruent","1",0.225,"left",0,0.584
"S010","Illusion_Session2",NA,27.6705166666667,"1920x969",1.86048,60.03,"chrome","107.0.0","Windows 10","VerticalHorizontal",1,56,"VerticalHorizontal_28.75714_0.22500",28.75714,"Incongruent","1",0.225,"right",1,0.657
"S010","Illusion_Session2",NA,27.6705166666667,"1920x969",1.86048,60.03,"chrome","107.0.0","Windows 10","VerticalHorizontal",1,57,"VerticalHorizontal_-20.27143_0.22500",-20.27143,"Congruent","1",0.225,"left",0,0.485
"S010","Illusion_Session2",NA,27.6705166666667,"1920x969",1.86048,60.03,"chrome","107.0.0","Windows 10","VerticalHorizontal",1,58,"VerticalHorizontal_11.78571_0.06730",11.78571,"Incongruent","1",0.0673,"left",0,1.941
"S010","Illusion_Session2",NA,27.6705166666667,"1920x969",1.86048,60.03,"chrome","107.0.0","Windows 10","VerticalHorizontal",1,59,"VerticalHorizontal_-11.78571_0.10960",-11.78571,"Congruent","1",0.1096,"left",0,1.496
"S010","Illusion_Session2",NA,27.6705166666667,"1920x969",1.86048,60.03,"chrome","107.0.0","Windows 10","VerticalHorizontal",1,60,"VerticalHorizontal_-20.27143_-0.0673",-20.27143,"Congruent","-1",0.0673,"right",0,0.914
"S010","Illusion_Session2",NA,27.6705166666667,"1920x969",1.86048,60.03,"chrome","107.0.0","Windows 10","VerticalHorizontal",1,61,"VerticalHorizontal_-28.75714_-0.1096",-28.75714,"Congruent","-1",0.1096,"right",0,0.704
"S010","Illusion_Session2",NA,27.6705166666667,"1920x969",1.86048,60.03,"chrome","107.0.0","Windows 10","VerticalHorizontal",1,62,"VerticalHorizontal_-11.78571_-0.16217",-11.78571,"Congruent","-1",0.16217,"right",0,0.994
"S010","Illusion_Session2",NA,27.6705166666667,"1920x969",1.86048,60.03,"chrome","107.0.0","Windows 10","VerticalHorizontal",1,63,"VerticalHorizontal_28.75714_-0.1096",28.75714,"Incongruent","-1",0.1096,"right",0,1.359
"S010","Illusion_Session2",NA,27.6705166666667,"1920x969",1.86048,60.03,"chrome","107.0.0","Windows 10","VerticalHorizontal",1,64,"VerticalHorizontal_28.75714_-0.2250",28.75714,"Incongruent","-1",0.225,"right",0,1.36
"S010","Illusion_Session2",NA,27.6705166666667,"1920x969",1.86048,60.03,"chrome","107.0.0","Windows 10","Ebbinghaus",2,1,"Ebbinghaus_1.00000_-0.13357",1,"Incongruent","-1",0.13357,"left",1,1.353
"S010","Illusion_Session2",NA,27.6705166666667,"1920x969",1.86048,60.03,"chrome","107.0.0","Windows 10","Ebbinghaus",2,2,"Ebbinghaus_-1.0000_-0.0900",-1,"Congruent","-1",0.09,"right",0,0.617
"S010","Illusion_Session2",NA,27.6705166666667,"1920x969",1.86048,60.03,"chrome","107.0.0","Windows 10","Ebbinghaus",2,3,"Ebbinghaus_0.22857_0.24643",0.22857,"Incongruent","1",0.24643,"left",0,1.017
"S010","Illusion_Session2",NA,27.6705166666667,"1920x969",1.86048,60.03,"chrome","107.0.0","Windows 10","Ebbinghaus",2,4,"Ebbinghaus_0.48571_-0.13357",0.48571,"Incongruent","-1",0.13357,"right",0,0.652
"S010","Illusion_Session2",NA,27.6705166666667,"1920x969",1.86048,60.03,"chrome","107.0.0","Windows 10","Ebbinghaus",2,5,"Ebbinghaus_0.48571_0.09000",0.48571,"Incongruent","1",0.09,"right",1,1.03
"S010","Illusion_Session2",NA,27.6705166666667,"1920x969",1.86048,60.03,"chrome","107.0.0","Windows 10","Ebbinghaus",2,6,"Ebbinghaus_-1.0000_0.18571",-1,"Congruent","1",0.18571,"left",0,0.7
"S010","Illusion_Session2",NA,27.6705166666667,"1920x969",1.86048,60.03,"chrome","107.0.0","Windows 10","Ebbinghaus",2,7,"Ebbinghaus_-1.0000_-0.24643",-1,"Congruent","-1",0.24643,"right",0,0.573
"S010","Illusion_Session2",NA,27.6705166666667,"1920x969",1.86048,60.03,"chrome","107.0.0","Windows 10","Ebbinghaus",2,8,"Ebbinghaus_1.00000_-0.18571",1,"Incongruent","-1",0.18571,"left",1,2.034
"S010","Illusion_Session2",NA,27.6705166666667,"1920x969",1.86048,60.03,"chrome","107.0.0","Windows 10","Ebbinghaus",2,9,"Ebbinghaus_-0.74286_-0.18571",-0.74286,"Congruent","-1",0.18571,"right",0,0.553
"S010","Illusion_Session2",NA,27.6705166666667,"1920x969",1.86048,60.03,"chrome","107.0.0","Windows 10","Ebbinghaus",2,10,"Ebbinghaus_-0.48571_0.09000",-0.48571,"Congruent","1",0.09,"left",0,1.089
"S010","Illusion_Session2",NA,27.6705166666667,"1920x969",1.86048,60.03,"chrome","107.0.0","Windows 10","Ebbinghaus",2,11,"Ebbinghaus_-1.0000_-0.13357",-1,"Congruent","-1",0.13357,"right",0,0.823
"S010","Illusion_Session2",NA,27.6705166666667,"1920x969",1.86048,60.03,"chrome","107.0.0","Windows 10","Ebbinghaus",2,12,"Ebbinghaus_-0.48571_0.13357",-0.48571,"Congruent","1",0.13357,"left",0,1.214
"S010","Illusion_Session2",NA,27.6705166666667,"1920x969",1.86048,60.03,"chrome","107.0.0","Windows 10","Ebbinghaus",2,13,"Ebbinghaus_-0.22857_0.13357",-0.22857,"Congruent","1",0.13357,"left",0,0.782
"S010","Illusion_Session2",NA,27.6705166666667,"1920x969",1.86048,60.03,"chrome","107.0.0","Windows 10","Ebbinghaus",2,14,"Ebbinghaus_0.48571_-0.18571",0.48571,"Incongruent","-1",0.18571,"right",0,0.651
"S010","Illusion_Session2",NA,27.6705166666667,"1920x969",1.86048,60.03,"chrome","107.0.0","Windows 10","Ebbinghaus",2,15,"Ebbinghaus_0.74286_-0.24643",0.74286,"Incongruent","-1",0.24643,"right",0,0.562
"S010","Illusion_Session2",NA,27.6705166666667,"1920x969",1.86048,60.03,"chrome","107.0.0","Windows 10","Ebbinghaus",2,16,"Ebbinghaus_1.00000_0.18571",1,"Incongruent","1",0.18571,"left",0,0.933
"S010","Illusion_Session2",NA,27.6705166666667,"1920x969",1.86048,60.03,"chrome","107.0.0","Windows 10","Ebbinghaus",2,17,"Ebbinghaus_-0.22857_-0.18571",-0.22857,"Congruent","-1",0.18571,"right",0,0.764
"S010","Illusion_Session2",NA,27.6705166666667,"1920x969",1.86048,60.03,"chrome","107.0.0","Windows 10","Ebbinghaus",2,18,"Ebbinghaus_0.48571_-0.0900",0.48571,"Incongruent","-1",0.09,"right",0,0.748
"S010","Illusion_Session2",NA,27.6705166666667,"1920x969",1.86048,60.03,"chrome","107.0.0","Windows 10","Ebbinghaus",2,19,"Ebbinghaus_-0.22857_0.24643",-0.22857,"Congruent","1",0.24643,"left",0,0.887
"S010","Illusion_Session2",NA,27.6705166666667,"1920x969",1.86048,60.03,"chrome","107.0.0","Windows 10","Ebbinghaus",2,20,"Ebbinghaus_-0.48571_0.24643",-0.48571,"Congruent","1",0.24643,"left",0,0.825
"S010","Illusion_Session2",NA,27.6705166666667,"1920x969",1.86048,60.03,"chrome","107.0.0","Windows 10","Ebbinghaus",2,21,"Ebbinghaus_0.74286_-0.0900",0.74286,"Incongruent","-1",0.09,"left",1,1.985
"S010","Illusion_Session2",NA,27.6705166666667,"1920x969",1.86048,60.03,"chrome","107.0.0","Windows 10","Ebbinghaus",2,22,"Ebbinghaus_-0.22857_-0.0900",-0.22857,"Congruent","-1",0.09,"left",1,1.357
"S010","Illusion_Session2",NA,27.6705166666667,"1920x969",1.86048,60.03,"chrome","107.0.0","Windows 10","Ebbinghaus",2,23,"Ebbinghaus_-0.48571_-0.13357",-0.48571,"Congruent","-1",0.13357,"left",1,1.232
"S010","Illusion_Session2",NA,27.6705166666667,"1920x969",1.86048,60.03,"chrome","107.0.0","Windows 10","Ebbinghaus",2,24,"Ebbinghaus_-0.48571_0.18571",-0.48571,"Congruent","1",0.18571,"left",0,2.099
"S010","Illusion_Session2",NA,27.6705166666667,"1920x969",1.86048,60.03,"chrome","107.0.0","Windows 10","Ebbinghaus",2,25,"Ebbinghaus_-0.22857_0.09000",-0.22857,"Congruent","1",0.09,"left",0,1.805
"S010","Illusion_Session2",NA,27.6705166666667,"1920x969",1.86048,60.03,"chrome","107.0.0","Windows 10","Ebbinghaus",2,26,"Ebbinghaus_1.00000_0.09000",1,"Incongruent","1",0.09,"right",1,1.042
"S010","Illusion_Session2",NA,27.6705166666667,"1920x969",1.86048,60.03,"chrome","107.0.0","Windows 10","Ebbinghaus",2,27,"Ebbinghaus_-0.74286_-0.13357",-0.74286,"Congruent","-1",0.13357,"right",0,0.979
"S010","Illusion_Session2",NA,27.6705166666667,"1920x969",1.86048,60.03,"chrome","107.0.0","Windows 10","Ebbinghaus",2,28,"Ebbinghaus_0.48571_0.13357",0.48571,"Incongruent","1",0.13357,"left",0,0.633
"S010","Illusion_Session2",NA,27.6705166666667,"1920x969",1.86048,60.03,"chrome","107.0.0","Windows 10","Ebbinghaus",2,29,"Ebbinghaus_-0.22857_-0.13357",-0.22857,"Congruent","-1",0.13357,"right",0,1.142
"S010","Illusion_Session2",NA,27.6705166666667,"1920x969",1.86048,60.03,"chrome","107.0.0","Windows 10","Ebbinghaus",2,30,"Ebbinghaus_0.74286_0.18571",0.74286,"Incongruent","1",0.18571,"left",0,0.542
"S010","Illusion_Session2",NA,27.6705166666667,"1920x969",1.86048,60.03,"chrome","107.0.0","Windows 10","Ebbinghaus",2,31,"Ebbinghaus_0.22857_0.18571",0.22857,"Incongruent","1",0.18571,"left",0,0.671
"S010","Illusion_Session2",NA,27.6705166666667,"1920x969",1.86048,60.03,"chrome","107.0.0","Windows 10","Ebbinghaus",2,32,"Ebbinghaus_0.22857_-0.0900",0.22857,"Incongruent","-1",0.09,"right",0,0.755
"S010","Illusion_Session2",NA,27.6705166666667,"1920x969",1.86048,60.03,"chrome","107.0.0","Windows 10","Ebbinghaus",2,33,"Ebbinghaus_-0.22857_-0.24643",-0.22857,"Congruent","-1",0.24643,"right",0,0.698
"S010","Illusion_Session2",NA,27.6705166666667,"1920x969",1.86048,60.03,"chrome","107.0.0","Windows 10","Ebbinghaus",2,34,"Ebbinghaus_0.48571_0.24643",0.48571,"Incongruent","1",0.24643,"left",0,0.884
"S010","Illusion_Session2",NA,27.6705166666667,"1920x969",1.86048,60.03,"chrome","107.0.0","Windows 10","Ebbinghaus",2,35,"Ebbinghaus_-0.48571_-0.24643",-0.48571,"Congruent","-1",0.24643,"right",0,0.631
"S010","Illusion_Session2",NA,27.6705166666667,"1920x969",1.86048,60.03,"chrome","107.0.0","Windows 10","Ebbinghaus",2,36,"Ebbinghaus_0.48571_-0.24643",0.48571,"Incongruent","-1",0.24643,"right",0,2.114
"S010","Illusion_Session2",NA,27.6705166666667,"1920x969",1.86048,60.03,"chrome","107.0.0","Windows 10","Ebbinghaus",2,37,"Ebbinghaus_-0.22857_0.18571",-0.22857,"Congruent","1",0.18571,"left",0,0.859
"S010","Illusion_Session2",NA,27.6705166666667,"1920x969",1.86048,60.03,"chrome","107.0.0","Windows 10","Ebbinghaus",2,38,"Ebbinghaus_-1.0000_-0.18571",-1,"Congruent","-1",0.18571,"right",0,0.731
"S010","Illusion_Session2",NA,27.6705166666667,"1920x969",1.86048,60.03,"chrome","107.0.0","Windows 10","Ebbinghaus",2,39,"Ebbinghaus_-0.48571_-0.18571",-0.48571,"Congruent","-1",0.18571,"right",0,0.862
"S010","Illusion_Session2",NA,27.6705166666667,"1920x969",1.86048,60.03,"chrome","107.0.0","Windows 10","Ebbinghaus",2,40,"Ebbinghaus_0.22857_0.13357",0.22857,"Incongruent","1",0.13357,"left",0,0.775
"S010","Illusion_Session2",NA,27.6705166666667,"1920x969",1.86048,60.03,"chrome","107.0.0","Windows 10","Ebbinghaus",2,41,"Ebbinghaus_0.48571_0.18571",0.48571,"Incongruent","1",0.18571,"left",0,0.724
"S010","Illusion_Session2",NA,27.6705166666667,"1920x969",1.86048,60.03,"chrome","107.0.0","Windows 10","Ebbinghaus",2,42,"Ebbinghaus_0.22857_-0.18571",0.22857,"Incongruent","-1",0.18571,"right",0,0.676
"S010","Illusion_Session2",NA,27.6705166666667,"1920x969",1.86048,60.03,"chrome","107.0.0","Windows 10","Ebbinghaus",2,43,"Ebbinghaus_0.74286_0.09000",0.74286,"Incongruent","1",0.09,"left",0,0.56
"S010","Illusion_Session2",NA,27.6705166666667,"1920x969",1.86048,60.03,"chrome","107.0.0","Windows 10","Ebbinghaus",2,44,"Ebbinghaus_-0.74286_0.13357",-0.74286,"Congruent","1",0.13357,"right",1,0.677
"S010","Illusion_Session2",NA,27.6705166666667,"1920x969",1.86048,60.03,"chrome","107.0.0","Windows 10","Ebbinghaus",2,45,"Ebbinghaus_0.22857_0.09000",0.22857,"Incongruent","1",0.09,"left",0,1.234
"S010","Illusion_Session2",NA,27.6705166666667,"1920x969",1.86048,60.03,"chrome","107.0.0","Windows 10","Ebbinghaus",2,46,"Ebbinghaus_1.00000_0.24643",1,"Incongruent","1",0.24643,"left",0,2.233
"S010","Illusion_Session2",NA,27.6705166666667,"1920x969",1.86048,60.03,"chrome","107.0.0","Windows 10","Ebbinghaus",2,47,"Ebbinghaus_-0.74286_0.09000",-0.74286,"Congruent","1",0.09,"left",0,2.016
"S010","Illusion_Session2",NA,27.6705166666667,"1920x969",1.86048,60.03,"chrome","107.0.0","Windows 10","Ebbinghaus",2,48,"Ebbinghaus_-0.74286_-0.0900",-0.74286,"Congruent","-1",0.09,"right",0,2.232
"S010","Illusion_Session2",NA,27.6705166666667,"1920x969",1.86048,60.03,"chrome","107.0.0","Windows 10","Ebbinghaus",2,49,"Ebbinghaus_-0.74286_0.24643",-0.74286,"Congruent","1",0.24643,"left",0,0.727
"S010","Illusion_Session2",NA,27.6705166666667,"1920x969",1.86048,60.03,"chrome","107.0.0","Windows 10","Ebbinghaus",2,50,"Ebbinghaus_-0.74286_0.18571",-0.74286,"Congruent","1",0.18571,"left",0,1.039
"S010","Illusion_Session2",NA,27.6705166666667,"1920x969",1.86048,60.03,"chrome","107.0.0","Windows 10","Ebbinghaus",2,51,"Ebbinghaus_1.00000_-0.24643",1,"Incongruent","-1",0.24643,"right",0,0.921
"S010","Illusion_Session2",NA,27.6705166666667,"1920x969",1.86048,60.03,"chrome","107.0.0","Windows 10","Ebbinghaus",2,52,"Ebbinghaus_0.22857_-0.24643",0.22857,"Incongruent","-1",0.24643,"right",0,0.879
"S010","Illusion_Session2",NA,27.6705166666667,"1920x969",1.86048,60.03,"chrome","107.0.0","Windows 10","Ebbinghaus",2,53,"Ebbinghaus_0.74286_-0.18571",0.74286,"Incongruent","-1",0.18571,"right",0,1.146
"S010","Illusion_Session2",NA,27.6705166666667,"1920x969",1.86048,60.03,"chrome","107.0.0","Windows 10","Ebbinghaus",2,54,"Ebbinghaus_-0.48571_-0.0900",-0.48571,"Congruent","-1",0.09,"right",0,1.108
"S010","Illusion_Session2",NA,27.6705166666667,"1920x969",1.86048,60.03,"chrome","107.0.0","Windows 10","Ebbinghaus",2,55,"Ebbinghaus_0.74286_-0.13357",0.74286,"Incongruent","-1",0.13357,"right",0,1.315
"S010","Illusion_Session2",NA,27.6705166666667,"1920x969",1.86048,60.03,"chrome","107.0.0","Windows 10","Ebbinghaus",2,56,"Ebbinghaus_-1.0000_0.24643",-1,"Congruent","1",0.24643,"left",0,0.775
"S010","Illusion_Session2",NA,27.6705166666667,"1920x969",1.86048,60.03,"chrome","107.0.0","Windows 10","Ebbinghaus",2,57,"Ebbinghaus_1.00000_-0.0900",1,"Incongruent","-1",0.09,"right",0,0.793
"S010","Illusion_Session2",NA,27.6705166666667,"1920x969",1.86048,60.03,"chrome","107.0.0","Windows 10","Ebbinghaus",2,58,"Ebbinghaus_0.22857_-0.13357",0.22857,"Incongruent","-1",0.13357,"right",0,1.84
"S010","Illusion_Session2",NA,27.6705166666667,"1920x969",1.86048,60.03,"chrome","107.0.0","Windows 10","Ebbinghaus",2,59,"Ebbinghaus_0.74286_0.24643",0.74286,"Incongruent","1",0.24643,"right",1,1.455
"S010","Illusion_Session2",NA,27.6705166666667,"1920x969",1.86048,60.03,"chrome","107.0.0","Windows 10","Ebbinghaus",2,60,"Ebbinghaus_0.74286_0.13357",0.74286,"Incongruent","1",0.13357,"left",0,0.978
"S010","Illusion_Session2",NA,27.6705166666667,"1920x969",1.86048,60.03,"chrome","107.0.0","Windows 10","Ebbinghaus",2,61,"Ebbinghaus_-1.0000_0.13357",-1,"Congruent","1",0.13357,"left",0,0.756
"S010","Illusion_Session2",NA,27.6705166666667,"1920x969",1.86048,60.03,"chrome","107.0.0","Windows 10","Ebbinghaus",2,62,"Ebbinghaus_-0.74286_-0.24643",-0.74286,"Congruent","-1",0.24643,"right",0,1.031
"S010","Illusion_Session2",NA,27.6705166666667,"1920x969",1.86048,60.03,"chrome","107.0.0","Windows 10","Ebbinghaus",2,63,"Ebbinghaus_-1.0000_0.09000",-1,"Congruent","1",0.09,"left",0,1.601
"S010","Illusion_Session2",NA,27.6705166666667,"1920x969",1.86048,60.03,"chrome","107.0.0","Windows 10","Ebbinghaus",2,64,"Ebbinghaus_1.00000_0.13357",1,"Incongruent","1",0.13357,"right",1,2.514
"S010","Illusion_Session2",NA,27.6705166666667,"1920x969",1.86048,60.03,"chrome","107.0.0","Windows 10","MullerLyer",2,1,"MullerLyer_23.0000_0.10808",23,"Incongruent","1",0.10808,"down",1,0.791
"S010","Illusion_Session2",NA,27.6705166666667,"1920x969",1.86048,60.03,"chrome","107.0.0","Windows 10","MullerLyer",2,2,"MullerLyer_5.25714_-0.10808",5.25714,"Incongruent","-1",0.10808,"down",0,0.91
"S010","Illusion_Session2",NA,27.6705166666667,"1920x969",1.86048,60.03,"chrome","107.0.0","Windows 10","MullerLyer",2,3,"MullerLyer_17.08571_-0.29056",17.08571,"Incongruent","-1",0.29056,"down",0,0.767
"S010","Illusion_Session2",NA,27.6705166666667,"1920x969",1.86048,60.03,"chrome","107.0.0","Windows 10","MullerLyer",2,4,"MullerLyer_-5.25714_-0.10808",-5.25714,"Congruent","-1",0.10808,"down",0,2.079
"S010","Illusion_Session2",NA,27.6705166666667,"1920x969",1.86048,60.03,"chrome","107.0.0","Windows 10","MullerLyer",2,5,"MullerLyer_17.08571_-0.18826",17.08571,"Incongruent","-1",0.18826,"up",1,1.368
"S010","Illusion_Session2",NA,27.6705166666667,"1920x969",1.86048,60.03,"chrome","107.0.0","Windows 10","MullerLyer",2,6,"MullerLyer_-23.000_-0.10808",-23,"Congruent","-1",0.10808,"down",0,0.566
"S010","Illusion_Session2",NA,27.6705166666667,"1920x969",1.86048,60.03,"chrome","107.0.0","Windows 10","MullerLyer",2,7,"MullerLyer_-5.25714_-0.29056",-5.25714,"Congruent","-1",0.29056,"down",0,0.624
"S010","Illusion_Session2",NA,27.6705166666667,"1920x969",1.86048,60.03,"chrome","107.0.0","Windows 10","MullerLyer",2,8,"MullerLyer_-11.17143_-0.10808",-11.17143,"Congruent","-1",0.10808,"down",0,0.958
"S010","Illusion_Session2",NA,27.6705166666667,"1920x969",1.86048,60.03,"chrome","107.0.0","Windows 10","MullerLyer",2,9,"MullerLyer_11.17143_-0.0500",11.17143,"Incongruent","-1",0.05,"up",1,1.1
"S010","Illusion_Session2",NA,27.6705166666667,"1920x969",1.86048,60.03,"chrome","107.0.0","Windows 10","MullerLyer",2,10,"MullerLyer_-11.17143_-0.29056",-11.17143,"Congruent","-1",0.29056,"down",0,0.608
"S010","Illusion_Session2",NA,27.6705166666667,"1920x969",1.86048,60.03,"chrome","107.0.0","Windows 10","MullerLyer",2,11,"MullerLyer_23.0000_0.29056",23,"Incongruent","1",0.29056,"up",0,1.544
"S010","Illusion_Session2",NA,27.6705166666667,"1920x969",1.86048,60.03,"chrome","107.0.0","Windows 10","MullerLyer",2,12,"MullerLyer_23.0000_-0.18826",23,"Incongruent","-1",0.18826,"up",1,2.768
"S010","Illusion_Session2",NA,27.6705166666667,"1920x969",1.86048,60.03,"chrome","107.0.0","Windows 10","MullerLyer",2,13,"MullerLyer_-11.17143_-0.18826",-11.17143,"Congruent","-1",0.18826,"down",0,0.531
"S010","Illusion_Session2",NA,27.6705166666667,"1920x969",1.86048,60.03,"chrome","107.0.0","Windows 10","MullerLyer",2,14,"MullerLyer_-5.25714_-0.18826",-5.25714,"Congruent","-1",0.18826,"down",0,0.574
"S010","Illusion_Session2",NA,27.6705166666667,"1920x969",1.86048,60.03,"chrome","107.0.0","Windows 10","MullerLyer",2,15,"MullerLyer_23.0000_0.05000",23,"Incongruent","1",0.05,"down",1,1.102
"S010","Illusion_Session2",NA,27.6705166666667,"1920x969",1.86048,60.03,"chrome","107.0.0","Windows 10","MullerLyer",2,16,"MullerLyer_-23.000_0.18826",-23,"Congruent","1",0.18826,"up",0,0.574
"S010","Illusion_Session2",NA,27.6705166666667,"1920x969",1.86048,60.03,"chrome","107.0.0","Windows 10","MullerLyer",2,17,"MullerLyer_-17.08571_-0.10808",-17.08571,"Congruent","-1",0.10808,"down",0,0.517
"S010","Illusion_Session2",NA,27.6705166666667,"1920x969",1.86048,60.03,"chrome","107.0.0","Windows 10","MullerLyer",2,18,"MullerLyer_-5.25714_0.29056",-5.25714,"Congruent","1",0.29056,"up",0,0.627
"S010","Illusion_Session2",NA,27.6705166666667,"1920x969",1.86048,60.03,"chrome","107.0.0","Windows 10","MullerLyer",2,19,"MullerLyer_-23.000_0.10808",-23,"Congruent","1",0.10808,"up",0,0.518
"S010","Illusion_Session2",NA,27.6705166666667,"1920x969",1.86048,60.03,"chrome","107.0.0","Windows 10","MullerLyer",2,20,"MullerLyer_-23.000_-0.18826",-23,"Congruent","-1",0.18826,"down",0,0.529
"S010","Illusion_Session2",NA,27.6705166666667,"1920x969",1.86048,60.03,"chrome","107.0.0","Windows 10","MullerLyer",2,21,"MullerLyer_5.25714_-0.0500",5.25714,"Incongruent","-1",0.05,"up",1,1.254
"S010","Illusion_Session2",NA,27.6705166666667,"1920x969",1.86048,60.03,"chrome","107.0.0","Windows 10","MullerLyer",2,22,"MullerLyer_23.0000_-0.10808",23,"Incongruent","-1",0.10808,"up",1,0.583
"S010","Illusion_Session2",NA,27.6705166666667,"1920x969",1.86048,60.03,"chrome","107.0.0","Windows 10","MullerLyer",2,23,"MullerLyer_11.17143_-0.29056",11.17143,"Incongruent","-1",0.29056,"down",0,0.881
"S010","Illusion_Session2",NA,27.6705166666667,"1920x969",1.86048,60.03,"chrome","107.0.0","Windows 10","MullerLyer",2,24,"MullerLyer_-11.17143_-0.0500",-11.17143,"Congruent","-1",0.05,"down",0,2.696
"S010","Illusion_Session2",NA,27.6705166666667,"1920x969",1.86048,60.03,"chrome","107.0.0","Windows 10","MullerLyer",2,25,"MullerLyer_5.25714_0.05000",5.25714,"Incongruent","1",0.05,"up",0,0.596
"S010","Illusion_Session2",NA,27.6705166666667,"1920x969",1.86048,60.03,"chrome","107.0.0","Windows 10","MullerLyer",2,26,"MullerLyer_-11.17143_0.18826",-11.17143,"Congruent","1",0.18826,"up",0,0.503
"S010","Illusion_Session2",NA,27.6705166666667,"1920x969",1.86048,60.03,"chrome","107.0.0","Windows 10","MullerLyer",2,27,"MullerLyer_-17.08571_-0.18826",-17.08571,"Congruent","-1",0.18826,"down",0,0.503
"S010","Illusion_Session2",NA,27.6705166666667,"1920x969",1.86048,60.03,"chrome","107.0.0","Windows 10","MullerLyer",2,28,"MullerLyer_11.17143_-0.10808",11.17143,"Incongruent","-1",0.10808,"up",1,0.831
"S010","Illusion_Session2",NA,27.6705166666667,"1920x969",1.86048,60.03,"chrome","107.0.0","Windows 10","MullerLyer",2,29,"MullerLyer_-17.08571_0.10808",-17.08571,"Congruent","1",0.10808,"up",0,0.599
"S010","Illusion_Session2",NA,27.6705166666667,"1920x969",1.86048,60.03,"chrome","107.0.0","Windows 10","MullerLyer",2,30,"MullerLyer_-5.25714_0.18826",-5.25714,"Congruent","1",0.18826,"up",0,0.809
"S010","Illusion_Session2",NA,27.6705166666667,"1920x969",1.86048,60.03,"chrome","107.0.0","Windows 10","MullerLyer",2,31,"MullerLyer_-23.000_-0.0500",-23,"Congruent","-1",0.05,"down",0,0.759
"S010","Illusion_Session2",NA,27.6705166666667,"1920x969",1.86048,60.03,"chrome","107.0.0","Windows 10","MullerLyer",2,32,"MullerLyer_-17.08571_-0.29056",-17.08571,"Congruent","-1",0.29056,"down",0,0.574
"S010","Illusion_Session2",NA,27.6705166666667,"1920x969",1.86048,60.03,"chrome","107.0.0","Windows 10","MullerLyer",2,33,"MullerLyer_5.25714_-0.29056",5.25714,"Incongruent","-1",0.29056,"down",0,0.516
"S010","Illusion_Session2",NA,27.6705166666667,"1920x969",1.86048,60.03,"chrome","107.0.0","Windows 10","MullerLyer",2,34,"MullerLyer_23.0000_-0.0500",23,"Incongruent","-1",0.05,"up",1,0.487
"S010","Illusion_Session2",NA,27.6705166666667,"1920x969",1.86048,60.03,"chrome","107.0.0","Windows 10","MullerLyer",2,35,"MullerLyer_17.08571_0.18826",17.08571,"Incongruent","1",0.18826,"down",1,0.533
"S010","Illusion_Session2",NA,27.6705166666667,"1920x969",1.86048,60.03,"chrome","107.0.0","Windows 10","MullerLyer",2,36,"MullerLyer_-11.17143_0.10808",-11.17143,"Congruent","1",0.10808,"up",0,0.608
"S010","Illusion_Session2",NA,27.6705166666667,"1920x969",1.86048,60.03,"chrome","107.0.0","Windows 10","MullerLyer",2,37,"MullerLyer_-5.25714_-0.0500",-5.25714,"Congruent","-1",0.05,"down",0,0.903
"S010","Illusion_Session2",NA,27.6705166666667,"1920x969",1.86048,60.03,"chrome","107.0.0","Windows 10","MullerLyer",2,38,"MullerLyer_5.25714_0.10808",5.25714,"Incongruent","1",0.10808,"up",0,1.032
"S010","Illusion_Session2",NA,27.6705166666667,"1920x969",1.86048,60.03,"chrome","107.0.0","Windows 10","MullerLyer",2,39,"MullerLyer_11.17143_0.18826",11.17143,"Incongruent","1",0.18826,"up",0,0.525
"S010","Illusion_Session2",NA,27.6705166666667,"1920x969",1.86048,60.03,"chrome","107.0.0","Windows 10","MullerLyer",2,40,"MullerLyer_-5.25714_0.05000",-5.25714,"Congruent","1",0.05,"up",0,0.595
"S010","Illusion_Session2",NA,27.6705166666667,"1920x969",1.86048,60.03,"chrome","107.0.0","Windows 10","MullerLyer",2,41,"MullerLyer_-17.08571_0.29056",-17.08571,"Congruent","1",0.29056,"up",0,0.898
"S010","Illusion_Session2",NA,27.6705166666667,"1920x969",1.86048,60.03,"chrome","107.0.0","Windows 10","MullerLyer",2,42,"MullerLyer_-11.17143_0.29056",-11.17143,"Congruent","1",0.29056,"up",0,0.524
"S010","Illusion_Session2",NA,27.6705166666667,"1920x969",1.86048,60.03,"chrome","107.0.0","Windows 10","MullerLyer",2,43,"MullerLyer_17.08571_0.10808",17.08571,"Incongruent","1",0.10808,"down",1,0.639
"S010","Illusion_Session2",NA,27.6705166666667,"1920x969",1.86048,60.03,"chrome","107.0.0","Windows 10","MullerLyer",2,44,"MullerLyer_11.17143_-0.18826",11.17143,"Incongruent","-1",0.18826,"down",0,1.181
"S010","Illusion_Session2",NA,27.6705166666667,"1920x969",1.86048,60.03,"chrome","107.0.0","Windows 10","MullerLyer",2,45,"MullerLyer_-23.000_-0.29056",-23,"Congruent","-1",0.29056,"down",0,0.504
"S010","Illusion_Session2",NA,27.6705166666667,"1920x969",1.86048,60.03,"chrome","107.0.0","Windows 10","MullerLyer",2,46,"MullerLyer_5.25714_0.29056",5.25714,"Incongruent","1",0.29056,"up",0,0.492
"S010","Illusion_Session2",NA,27.6705166666667,"1920x969",1.86048,60.03,"chrome","107.0.0","Windows 10","MullerLyer",2,47,"MullerLyer_-17.08571_-0.0500",-17.08571,"Congruent","-1",0.05,"down",0,0.553
"S010","Illusion_Session2",NA,27.6705166666667,"1920x969",1.86048,60.03,"chrome","107.0.0","Windows 10","MullerLyer",2,48,"MullerLyer_-5.25714_0.10808",-5.25714,"Congruent","1",0.10808,"up",0,0.557
"S010","Illusion_Session2",NA,27.6705166666667,"1920x969",1.86048,60.03,"chrome","107.0.0","Windows 10","MullerLyer",2,49,"MullerLyer_-11.17143_0.05000",-11.17143,"Congruent","1",0.05,"up",0,0.579
"S010","Illusion_Session2",NA,27.6705166666667,"1920x969",1.86048,60.03,"chrome","107.0.0","Windows 10","MullerLyer",2,50,"MullerLyer_11.17143_0.05000",11.17143,"Incongruent","1",0.05,"down",1,0.513
"S010","Illusion_Session2",NA,27.6705166666667,"1920x969",1.86048,60.03,"chrome","107.0.0","Windows 10","MullerLyer",2,51,"MullerLyer_11.17143_0.29056",11.17143,"Incongruent","1",0.29056,"up",0,0.778
"S010","Illusion_Session2",NA,27.6705166666667,"1920x969",1.86048,60.03,"chrome","107.0.0","Windows 10","MullerLyer",2,52,"MullerLyer_23.0000_-0.29056",23,"Incongruent","-1",0.29056,"up",1,0.524
"S010","Illusion_Session2",NA,27.6705166666667,"1920x969",1.86048,60.03,"chrome","107.0.0","Windows 10","MullerLyer",2,53,"MullerLyer_17.08571_0.05000",17.08571,"Incongruent","1",0.05,"down",1,1.257
"S010","Illusion_Session2",NA,27.6705166666667,"1920x969",1.86048,60.03,"chrome","107.0.0","Windows 10","MullerLyer",2,54,"MullerLyer_-17.08571_0.05000",-17.08571,"Congruent","1",0.05,"up",0,0.852
"S010","Illusion_Session2",NA,27.6705166666667,"1920x969",1.86048,60.03,"chrome","107.0.0","Windows 10","MullerLyer",2,55,"MullerLyer_17.08571_-0.10808",17.08571,"Incongruent","-1",0.10808,"up",1,0.631
"S010","Illusion_Session2",NA,27.6705166666667,"1920x969",1.86048,60.03,"chrome","107.0.0","Windows 10","MullerLyer",2,56,"MullerLyer_5.25714_0.18826",5.25714,"Incongruent","1",0.18826,"up",0,0.639
"S010","Illusion_Session2",NA,27.6705166666667,"1920x969",1.86048,60.03,"chrome","107.0.0","Windows 10","MullerLyer",2,57,"MullerLyer_17.08571_-0.0500",17.08571,"Incongruent","-1",0.05,"down",0,0.99
"S010","Illusion_Session2",NA,27.6705166666667,"1920x969",1.86048,60.03,"chrome","107.0.0","Windows 10","MullerLyer",2,58,"MullerLyer_-17.08571_0.18826",-17.08571,"Congruent","1",0.18826,"up",0,0.465
"S010","Illusion_Session2",NA,27.6705166666667,"1920x969",1.86048,60.03,"chrome","107.0.0","Windows 10","MullerLyer",2,59,"MullerLyer_-23.000_0.05000",-23,"Congruent","1",0.05,"up",0,0.582
"S010","Illusion_Session2",NA,27.6705166666667,"1920x969",1.86048,60.03,"chrome","107.0.0","Windows 10","MullerLyer",2,60,"MullerLyer_17.08571_0.29056",17.08571,"Incongruent","1",0.29056,"up",0,1.169
"S010","Illusion_Session2",NA,27.6705166666667,"1920x969",1.86048,60.03,"chrome","107.0.0","Windows 10","MullerLyer",2,61,"MullerLyer_5.25714_-0.18826",5.25714,"Incongruent","-1",0.18826,"up",1,0.604
"S010","Illusion_Session2",NA,27.6705166666667,"1920x969",1.86048,60.03,"chrome","107.0.0","Windows 10","MullerLyer",2,62,"MullerLyer_23.0000_0.18826",23,"Incongruent","1",0.18826,"down",1,1.881
"S010","Illusion_Session2",NA,27.6705166666667,"1920x969",1.86048,60.03,"chrome","107.0.0","Windows 10","MullerLyer",2,63,"MullerLyer_11.17143_0.10808",11.17143,"Incongruent","1",0.10808,"up",0,1.229
"S010","Illusion_Session2",NA,27.6705166666667,"1920x969",1.86048,60.03,"chrome","107.0.0","Windows 10","MullerLyer",2,64,"MullerLyer_-23.000_0.29056",-23,"Congruent","1",0.29056,"up",0,0.584
"S010","Illusion_Session2",NA,27.6705166666667,"1920x969",1.86048,60.03,"chrome","107.0.0","Windows 10","VerticalHorizontal",2,1,"VerticalHorizontal_33.0000_0.05000",33,"Incongruent","1",0.05,"left",0,1.886
"S010","Illusion_Session2",NA,27.6705166666667,"1920x969",1.86048,60.03,"chrome","107.0.0","Windows 10","VerticalHorizontal",2,2,"VerticalHorizontal_24.51429_0.08717",24.51429,"Incongruent","1",0.08717,"right",1,0.989
"S010","Illusion_Session2",NA,27.6705166666667,"1920x969",1.86048,60.03,"chrome","107.0.0","Windows 10","VerticalHorizontal",2,3,"VerticalHorizontal_-7.54286_0.19230",-7.54286,"Congruent","1",0.1923,"left",0,1.434
"S010","Illusion_Session2",NA,27.6705166666667,"1920x969",1.86048,60.03,"chrome","107.0.0","Windows 10","VerticalHorizontal",2,4,"VerticalHorizontal_16.02857_-0.1346",16.02857,"Incongruent","-1",0.1346,"right",0,0.986
"S010","Illusion_Session2",NA,27.6705166666667,"1920x969",1.86048,60.03,"chrome","107.0.0","Windows 10","VerticalHorizontal",2,5,"VerticalHorizontal_-16.02857_-0.08717",-16.02857,"Congruent","-1",0.08717,"right",0,0.954
"S010","Illusion_Session2",NA,27.6705166666667,"1920x969",1.86048,60.03,"chrome","107.0.0","Windows 10","VerticalHorizontal",2,6,"VerticalHorizontal_-7.54286_-0.0500",-7.54286,"Congruent","-1",0.05,"right",0,0.639
"S010","Illusion_Session2",NA,27.6705166666667,"1920x969",1.86048,60.03,"chrome","107.0.0","Windows 10","VerticalHorizontal",2,7,"VerticalHorizontal_16.02857_0.19230",16.02857,"Incongruent","1",0.1923,"left",0,1.118
"S010","Illusion_Session2",NA,27.6705166666667,"1920x969",1.86048,60.03,"chrome","107.0.0","Windows 10","VerticalHorizontal",2,8,"VerticalHorizontal_16.02857_-0.0500",16.02857,"Incongruent","-1",0.05,"right",0,1.078
"S010","Illusion_Session2",NA,27.6705166666667,"1920x969",1.86048,60.03,"chrome","107.0.0","Windows 10","VerticalHorizontal",2,9,"VerticalHorizontal_-24.51429_0.05000",-24.51429,"Congruent","1",0.05,"right",1,2.362
"S010","Illusion_Session2",NA,27.6705166666667,"1920x969",1.86048,60.03,"chrome","107.0.0","Windows 10","VerticalHorizontal",2,10,"VerticalHorizontal_24.51429_-0.1346",24.51429,"Incongruent","-1",0.1346,"right",0,0.911
"S010","Illusion_Session2",NA,27.6705166666667,"1920x969",1.86048,60.03,"chrome","107.0.0","Windows 10","VerticalHorizontal",2,11,"VerticalHorizontal_7.54286_-0.1923",7.54286,"Incongruent","-1",0.1923,"right",0,3.224
"S010","Illusion_Session2",NA,27.6705166666667,"1920x969",1.86048,60.03,"chrome","107.0.0","Windows 10","VerticalHorizontal",2,12,"VerticalHorizontal_7.54286_-0.0500",7.54286,"Incongruent","-1",0.05,"right",0,0.818
"S010","Illusion_Session2",NA,27.6705166666667,"1920x969",1.86048,60.03,"chrome","107.0.0","Windows 10","VerticalHorizontal",2,13,"VerticalHorizontal_-7.54286_-0.1346",-7.54286,"Congruent","-1",0.1346,"right",0,0.657
"S010","Illusion_Session2",NA,27.6705166666667,"1920x969",1.86048,60.03,"chrome","107.0.0","Windows 10","VerticalHorizontal",2,14,"VerticalHorizontal_-33.000_0.19230",-33,"Congruent","1",0.1923,"left",0,0.566
"S010","Illusion_Session2",NA,27.6705166666667,"1920x969",1.86048,60.03,"chrome","107.0.0","Windows 10","VerticalHorizontal",2,15,"VerticalHorizontal_-24.51429_-0.0500",-24.51429,"Congruent","-1",0.05,"right",0,0.62
"S010","Illusion_Session2",NA,27.6705166666667,"1920x969",1.86048,60.03,"chrome","107.0.0","Windows 10","VerticalHorizontal",2,16,"VerticalHorizontal_33.0000_-0.1923",33,"Incongruent","-1",0.1923,"right",0,1.067
"S010","Illusion_Session2",NA,27.6705166666667,"1920x969",1.86048,60.03,"chrome","107.0.0","Windows 10","VerticalHorizontal",2,17,"VerticalHorizontal_-24.51429_0.08717",-24.51429,"Congruent","1",0.08717,"left",0,1.222
"S010","Illusion_Session2",NA,27.6705166666667,"1920x969",1.86048,60.03,"chrome","107.0.0","Windows 10","VerticalHorizontal",2,18,"VerticalHorizontal_-16.02857_-0.0500",-16.02857,"Congruent","-1",0.05,"right",0,1.936
"S010","Illusion_Session2",NA,27.6705166666667,"1920x969",1.86048,60.03,"chrome","107.0.0","Windows 10","VerticalHorizontal",2,19,"VerticalHorizontal_33.0000_0.13460",33,"Incongruent","1",0.1346,"left",0,1.334
"S010","Illusion_Session2",NA,27.6705166666667,"1920x969",1.86048,60.03,"chrome","107.0.0","Windows 10","VerticalHorizontal",2,20,"VerticalHorizontal_7.54286_-0.08717",7.54286,"Incongruent","-1",0.08717,"right",0,0.748
"S010","Illusion_Session2",NA,27.6705166666667,"1920x969",1.86048,60.03,"chrome","107.0.0","Windows 10","VerticalHorizontal",2,21,"VerticalHorizontal_7.54286_0.19230",7.54286,"Incongruent","1",0.1923,"left",0,1.056
"S010","Illusion_Session2",NA,27.6705166666667,"1920x969",1.86048,60.03,"chrome","107.0.0","Windows 10","VerticalHorizontal",2,22,"VerticalHorizontal_33.0000_0.08717",33,"Incongruent","1",0.08717,"right",1,0.713
"S010","Illusion_Session2",NA,27.6705166666667,"1920x969",1.86048,60.03,"chrome","107.0.0","Windows 10","VerticalHorizontal",2,23,"VerticalHorizontal_-24.51429_0.19230",-24.51429,"Congruent","1",0.1923,"left",0,0.634
"S010","Illusion_Session2",NA,27.6705166666667,"1920x969",1.86048,60.03,"chrome","107.0.0","Windows 10","VerticalHorizontal",2,24,"VerticalHorizontal_7.54286_0.05000",7.54286,"Incongruent","1",0.05,"right",1,1.112
"S010","Illusion_Session2",NA,27.6705166666667,"1920x969",1.86048,60.03,"chrome","107.0.0","Windows 10","VerticalHorizontal",2,25,"VerticalHorizontal_-24.51429_-0.1346",-24.51429,"Congruent","-1",0.1346,"right",0,0.622
"S010","Illusion_Session2",NA,27.6705166666667,"1920x969",1.86048,60.03,"chrome","107.0.0","Windows 10","VerticalHorizontal",2,26,"VerticalHorizontal_-24.51429_-0.1923",-24.51429,"Congruent","-1",0.1923,"right",0,0.567
"S010","Illusion_Session2",NA,27.6705166666667,"1920x969",1.86048,60.03,"chrome","107.0.0","Windows 10","VerticalHorizontal",2,27,"VerticalHorizontal_16.02857_-0.08717",16.02857,"Incongruent","-1",0.08717,"right",0,1.085
"S010","Illusion_Session2",NA,27.6705166666667,"1920x969",1.86048,60.03,"chrome","107.0.0","Windows 10","VerticalHorizontal",2,28,"VerticalHorizontal_24.51429_0.05000",24.51429,"Incongruent","1",0.05,"right",1,1.176
"S010","Illusion_Session2",NA,27.6705166666667,"1920x969",1.86048,60.03,"chrome","107.0.0","Windows 10","VerticalHorizontal",2,29,"VerticalHorizontal_-33.000_0.08717",-33,"Congruent","1",0.08717,"left",0,0.919
"S010","Illusion_Session2",NA,27.6705166666667,"1920x969",1.86048,60.03,"chrome","107.0.0","Windows 10","VerticalHorizontal",2,30,"VerticalHorizontal_24.51429_-0.1923",24.51429,"Incongruent","-1",0.1923,"right",0,0.851
"S010","Illusion_Session2",NA,27.6705166666667,"1920x969",1.86048,60.03,"chrome","107.0.0","Windows 10","VerticalHorizontal",2,31,"VerticalHorizontal_-16.02857_-0.1923",-16.02857,"Congruent","-1",0.1923,"right",0,0.615
"S010","Illusion_Session2",NA,27.6705166666667,"1920x969",1.86048,60.03,"chrome","107.0.0","Windows 10","VerticalHorizontal",2,32,"VerticalHorizontal_16.02857_0.05000",16.02857,"Incongruent","1",0.05,"left",0,1.446
"S010","Illusion_Session2",NA,27.6705166666667,"1920x969",1.86048,60.03,"chrome","107.0.0","Windows 10","VerticalHorizontal",2,33,"VerticalHorizontal_16.02857_0.08717",16.02857,"Incongruent","1",0.08717,"left",0,1.306
"S010","Illusion_Session2",NA,27.6705166666667,"1920x969",1.86048,60.03,"chrome","107.0.0","Windows 10","VerticalHorizontal",2,34,"VerticalHorizontal_16.02857_0.13460",16.02857,"Incongruent","1",0.1346,"left",0,1.424
"S010","Illusion_Session2",NA,27.6705166666667,"1920x969",1.86048,60.03,"chrome","107.0.0","Windows 10","VerticalHorizontal",2,35,"VerticalHorizontal_-33.000_-0.1346",-33,"Congruent","-1",0.1346,"right",0,0.696
"S010","Illusion_Session2",NA,27.6705166666667,"1920x969",1.86048,60.03,"chrome","107.0.0","Windows 10","VerticalHorizontal",2,36,"VerticalHorizontal_-7.54286_-0.1923",-7.54286,"Congruent","-1",0.1923,"right",0,0.528
"S010","Illusion_Session2",NA,27.6705166666667,"1920x969",1.86048,60.03,"chrome","107.0.0","Windows 10","VerticalHorizontal",2,37,"VerticalHorizontal_-24.51429_0.13460",-24.51429,"Congruent","1",0.1346,"left",0,0.718
"S010","Illusion_Session2",NA,27.6705166666667,"1920x969",1.86048,60.03,"chrome","107.0.0","Windows 10","VerticalHorizontal",2,38,"VerticalHorizontal_7.54286_-0.1346",7.54286,"Incongruent","-1",0.1346,"right",0,0.654
"S010","Illusion_Session2",NA,27.6705166666667,"1920x969",1.86048,60.03,"chrome","107.0.0","Windows 10","VerticalHorizontal",2,39,"VerticalHorizontal_33.0000_-0.08717",33,"Incongruent","-1",0.08717,"right",0,1.501
"S010","Illusion_Session2",NA,27.6705166666667,"1920x969",1.86048,60.03,"chrome","107.0.0","Windows 10","VerticalHorizontal",2,40,"VerticalHorizontal_-7.54286_-0.08717",-7.54286,"Congruent","-1",0.08717,"right",0,0.726
"S010","Illusion_Session2",NA,27.6705166666667,"1920x969",1.86048,60.03,"chrome","107.0.0","Windows 10","VerticalHorizontal",2,41,"VerticalHorizontal_7.54286_0.08717",7.54286,"Incongruent","1",0.08717,"left",0,3.253
"S010","Illusion_Session2",NA,27.6705166666667,"1920x969",1.86048,60.03,"chrome","107.0.0","Windows 10","VerticalHorizontal",2,42,"VerticalHorizontal_-16.02857_-0.1346",-16.02857,"Congruent","-1",0.1346,"right",0,0.693
"S010","Illusion_Session2",NA,27.6705166666667,"1920x969",1.86048,60.03,"chrome","107.0.0","Windows 10","VerticalHorizontal",2,43,"VerticalHorizontal_-33.000_0.05000",-33,"Congruent","1",0.05,"left",0,0.606
"S010","Illusion_Session2",NA,27.6705166666667,"1920x969",1.86048,60.03,"chrome","107.0.0","Windows 10","VerticalHorizontal",2,44,"VerticalHorizontal_-7.54286_0.13460",-7.54286,"Congruent","1",0.1346,"left",0,0.672
"S010","Illusion_Session2",NA,27.6705166666667,"1920x969",1.86048,60.03,"chrome","107.0.0","Windows 10","VerticalHorizontal",2,45,"VerticalHorizontal_-24.51429_-0.08717",-24.51429,"Congruent","-1",0.08717,"right",0,0.621
"S010","Illusion_Session2",NA,27.6705166666667,"1920x969",1.86048,60.03,"chrome","107.0.0","Windows 10","VerticalHorizontal",2,46,"VerticalHorizontal_33.0000_0.19230",33,"Incongruent","1",0.1923,"left",0,1.725
"S010","Illusion_Session2",NA,27.6705166666667,"1920x969",1.86048,60.03,"chrome","107.0.0","Windows 10","VerticalHorizontal",2,47,"VerticalHorizontal_24.51429_-0.08717",24.51429,"Incongruent","-1",0.08717,"right",0,0.713
"S010","Illusion_Session2",NA,27.6705166666667,"1920x969",1.86048,60.03,"chrome","107.0.0","Windows 10","VerticalHorizontal",2,48,"VerticalHorizontal_33.0000_-0.0500",33,"Incongruent","-1",0.05,"right",0,1.068
"S010","Illusion_Session2",NA,27.6705166666667,"1920x969",1.86048,60.03,"chrome","107.0.0","Windows 10","VerticalHorizontal",2,49,"VerticalHorizontal_-16.02857_0.13460",-16.02857,"Congruent","1",0.1346,"right",1,1.506
"S010","Illusion_Session2",NA,27.6705166666667,"1920x969",1.86048,60.03,"chrome","107.0.0","Windows 10","VerticalHorizontal",2,50,"VerticalHorizontal_-33.000_-0.0500",-33,"Congruent","-1",0.05,"right",0,1.13
"S010","Illusion_Session2",NA,27.6705166666667,"1920x969",1.86048,60.03,"chrome","107.0.0","Windows 10","VerticalHorizontal",2,51,"VerticalHorizontal_16.02857_-0.1923",16.02857,"Incongruent","-1",0.1923,"right",0,0.716
"S010","Illusion_Session2",NA,27.6705166666667,"1920x969",1.86048,60.03,"chrome","107.0.0","Windows 10","VerticalHorizontal",2,52,"VerticalHorizontal_-33.000_-0.08717",-33,"Congruent","-1",0.08717,"right",0,1.889
"S010","Illusion_Session2",NA,27.6705166666667,"1920x969",1.86048,60.03,"chrome","107.0.0","Windows 10","VerticalHorizontal",2,53,"VerticalHorizontal_-7.54286_0.05000",-7.54286,"Congruent","1",0.05,"right",1,1.239
"S010","Illusion_Session2",NA,27.6705166666667,"1920x969",1.86048,60.03,"chrome","107.0.0","Windows 10","VerticalHorizontal",2,54,"VerticalHorizontal_-33.000_-0.1923",-33,"Congruent","-1",0.1923,"right",0,0.827
"S010","Illusion_Session2",NA,27.6705166666667,"1920x969",1.86048,60.03,"chrome","107.0.0","Windows 10","VerticalHorizontal",2,55,"VerticalHorizontal_7.54286_0.13460",7.54286,"Incongruent","1",0.1346,"left",0,1.086
"S010","Illusion_Session2",NA,27.6705166666667,"1920x969",1.86048,60.03,"chrome","107.0.0","Windows 10","VerticalHorizontal",2,56,"VerticalHorizontal_24.51429_0.13460",24.51429,"Incongruent","1",0.1346,"left",0,1.175
"S010","Illusion_Session2",NA,27.6705166666667,"1920x969",1.86048,60.03,"chrome","107.0.0","Windows 10","VerticalHorizontal",2,57,"VerticalHorizontal_-16.02857_0.05000",-16.02857,"Congruent","1",0.05,"right",1,0.957
"S010","Illusion_Session2",NA,27.6705166666667,"1920x969",1.86048,60.03,"chrome","107.0.0","Windows 10","VerticalHorizontal",2,58,"VerticalHorizontal_-16.02857_0.19230",-16.02857,"Congruent","1",0.1923,"left",0,0.033
"S010","Illusion_Session2",NA,27.6705166666667,"1920x969",1.86048,60.03,"chrome","107.0.0","Windows 10","VerticalHorizontal",2,59,"VerticalHorizontal_33.0000_-0.1346",33,"Incongruent","-1",0.1346,"right",0,1.005
"S010","Illusion_Session2",NA,27.6705166666667,"1920x969",1.86048,60.03,"chrome","107.0.0","Windows 10","VerticalHorizontal",2,60,"VerticalHorizontal_24.51429_-0.0500",24.51429,"Incongruent","-1",0.05,"left",1,0.674
"S010","Illusion_Session2",NA,27.6705166666667,"1920x969",1.86048,60.03,"chrome","107.0.0","Windows 10","VerticalHorizontal",2,61,"VerticalHorizontal_-7.54286_0.08717",-7.54286,"Congruent","1",0.08717,"right",1,0.049
"S010","Illusion_Session2",NA,27.6705166666667,"1920x969",1.86048,60.03,"chrome","107.0.0","Windows 10","VerticalHorizontal",2,62,"VerticalHorizontal_-33.000_0.13460",-33,"Congruent","1",0.1346,"right",1,0.164
"S010","Illusion_Session2",NA,27.6705166666667,"1920x969",1.86048,60.03,"chrome","107.0.0","Windows 10","VerticalHorizontal",2,63,"VerticalHorizontal_24.51429_0.19230",24.51429,"Incongruent","1",0.1923,"left",0,0.261
"S010","Illusion_Session2",NA,27.6705166666667,"1920x969",1.86048,60.03,"chrome","107.0.0","Windows 10","VerticalHorizontal",2,64,"VerticalHorizontal_-16.02857_0.08717",-16.02857,"Congruent","1",0.08717,"right",1,0.143
"S003","Illusion_Session2",NA,15.5086166666667,"1920x937",1.79904,60.27,"chrome","107.0.0","Windows 10","MullerLyer",1,19,"MullerLyer_20.04286_0.07627",20.04286,"Incongruent","1",0.07627,"down",1,1.291
"S003","Illusion_Session2",NA,15.5086166666667,"1920x937",1.79904,60.27,"chrome","107.0.0","Windows 10","MullerLyer",1,20,"MullerLyer_-8.21429_0.35000",-8.21429,"Congruent","1",0.35,"up",0,0.729
"S003","Illusion_Session2",NA,15.5086166666667,"1920x937",1.79904,60.27,"chrome","107.0.0","Windows 10","MullerLyer",1,21,"MullerLyer_8.21429_-0.07627",8.21429,"Incongruent","-1",0.07627,"up",1,0.968
"S003","Illusion_Session2",NA,15.5086166666667,"1920x937",1.79904,60.27,"chrome","107.0.0","Windows 10","MullerLyer",1,22,"MullerLyer_20.04286_0.35000",20.04286,"Incongruent","1",0.35,"up",0,0.868
"S003","Illusion_Session2",NA,15.5086166666667,"1920x937",1.79904,60.27,"chrome","107.0.0","Windows 10","MullerLyer",1,23,"MullerLyer_-20.04286_-0.23665",-20.04286,"Congruent","-1",0.23665,"down",0,0.538
"S003","Illusion_Session2",NA,15.5086166666667,"1920x937",1.79904,60.27,"chrome","107.0.0","Windows 10","MullerLyer",1,24,"MullerLyer_14.12857_0.23665",14.12857,"Incongruent","1",0.23665,"up",0,0.723
"S003","Illusion_Session2",NA,15.5086166666667,"1920x937",1.79904,60.27,"chrome","107.0.0","Windows 10","MullerLyer",1,25,"MullerLyer_-8.21429_0.07627",-8.21429,"Congruent","1",0.07627,"up",0,0.591
"S003","Illusion_Session2",NA,15.5086166666667,"1920x937",1.79904,60.27,"chrome","107.0.0","Windows 10","MullerLyer",1,26,"MullerLyer_-20.04286_0.35000",-20.04286,"Congruent","1",0.35,"up",0,0.51
"S003","Illusion_Session2",NA,15.5086166666667,"1920x937",1.79904,60.27,"chrome","107.0.0","Windows 10","MullerLyer",1,27,"MullerLyer_-14.12857_0.35000",-14.12857,"Congruent","1",0.35,"up",0,0.534
"S003","Illusion_Session2",NA,15.5086166666667,"1920x937",1.79904,60.27,"chrome","107.0.0","Windows 10","MullerLyer",1,28,"MullerLyer_-20.04286_-0.3500",-20.04286,"Congruent","-1",0.35,"down",0,0.543
"S003","Illusion_Session2",NA,15.5086166666667,"1920x937",1.79904,60.27,"chrome","107.0.0","Windows 10","MullerLyer",1,29,"MullerLyer_2.30000_0.35000",2.3,"Incongruent","1",0.35,"up",0,0.503
"S003","Illusion_Session2",NA,15.5086166666667,"1920x937",1.79904,60.27,"chrome","107.0.0","Windows 10","MullerLyer",1,30,"MullerLyer_8.21429_-0.3500",8.21429,"Incongruent","-1",0.35,"down",0,0.461
"S003","Illusion_Session2",NA,15.5086166666667,"1920x937",1.79904,60.27,"chrome","107.0.0","Windows 10","MullerLyer",1,31,"MullerLyer_-20.04286_0.14541",-20.04286,"Congruent","1",0.14541,"up",0,0.514
"S003","Illusion_Session2",NA,15.5086166666667,"1920x937",1.79904,60.27,"chrome","107.0.0","Windows 10","MullerLyer",1,32,"MullerLyer_-14.12857_0.14541",-14.12857,"Congruent","1",0.14541,"up",0,0.561
"S003","Illusion_Session2",NA,15.5086166666667,"1920x937",1.79904,60.27,"chrome","107.0.0","Windows 10","MullerLyer",1,33,"MullerLyer_2.30000_0.23665",2.3,"Incongruent","1",0.23665,"up",0,0.771
"S003","Illusion_Session2",NA,15.5086166666667,"1920x937",1.79904,60.27,"chrome","107.0.0","Windows 10","MullerLyer",1,34,"MullerLyer_-2.3000_0.14541",-2.3,"Congruent","1",0.14541,"up",0,0.518
"S003","Illusion_Session2",NA,15.5086166666667,"1920x937",1.79904,60.27,"chrome","107.0.0","Windows 10","MullerLyer",1,35,"MullerLyer_20.04286_-0.07627",20.04286,"Incongruent","-1",0.07627,"up",1,0.571
"S003","Illusion_Session2",NA,15.5086166666667,"1920x937",1.79904,60.27,"chrome","107.0.0","Windows 10","MullerLyer",1,36,"MullerLyer_2.30000_0.07627",2.3,"Incongruent","1",0.07627,"up",0,0.656
"S003","Illusion_Session2",NA,15.5086166666667,"1920x937",1.79904,60.27,"chrome","107.0.0","Windows 10","MullerLyer",1,37,"MullerLyer_-2.3000_0.35000",-2.3,"Congruent","1",0.35,"up",0,0.604
"S003","Illusion_Session2",NA,15.5086166666667,"1920x937",1.79904,60.27,"chrome","107.0.0","Windows 10","MullerLyer",1,38,"MullerLyer_20.04286_-0.23665",20.04286,"Incongruent","-1",0.23665,"up",1,0.59
"S003","Illusion_Session2",NA,15.5086166666667,"1920x937",1.79904,60.27,"chrome","107.0.0","Windows 10","MullerLyer",1,39,"MullerLyer_-14.12857_0.07627",-14.12857,"Congruent","1",0.07627,"up",0,0.56
"S003","Illusion_Session2",NA,15.5086166666667,"1920x937",1.79904,60.27,"chrome","107.0.0","Windows 10","MullerLyer",1,40,"MullerLyer_-20.04286_0.07627",-20.04286,"Congruent","1",0.07627,"up",0,0.607
"S003","Illusion_Session2",NA,15.5086166666667,"1920x937",1.79904,60.27,"chrome","107.0.0","Windows 10","MullerLyer",1,41,"MullerLyer_-14.12857_-0.14541",-14.12857,"Congruent","-1",0.14541,"down",0,0.732
"S003","Illusion_Session2",NA,15.5086166666667,"1920x937",1.79904,60.27,"chrome","107.0.0","Windows 10","MullerLyer",1,42,"MullerLyer_-8.21429_0.23665",-8.21429,"Congruent","1",0.23665,"up",0,0.682
"S003","Illusion_Session2",NA,15.5086166666667,"1920x937",1.79904,60.27,"chrome","107.0.0","Windows 10","MullerLyer",1,43,"MullerLyer_-20.04286_0.23665",-20.04286,"Congruent","1",0.23665,"up",0,0.682
"S003","Illusion_Session2",NA,15.5086166666667,"1920x937",1.79904,60.27,"chrome","107.0.0","Windows 10","MullerLyer",1,44,"MullerLyer_-8.21429_-0.23665",-8.21429,"Congruent","-1",0.23665,"down",0,0.524
"S003","Illusion_Session2",NA,15.5086166666667,"1920x937",1.79904,60.27,"chrome","107.0.0","Windows 10","MullerLyer",1,45,"MullerLyer_-2.3000_-0.07627",-2.3,"Congruent","-1",0.07627,"down",0,2.155
"S003","Illusion_Session2",NA,15.5086166666667,"1920x937",1.79904,60.27,"chrome","107.0.0","Windows 10","MullerLyer",1,46,"MullerLyer_8.21429_0.14541",8.21429,"Incongruent","1",0.14541,"up",0,0.951
"S003","Illusion_Session2",NA,15.5086166666667,"1920x937",1.79904,60.27,"chrome","107.0.0","Windows 10","MullerLyer",1,47,"MullerLyer_-2.3000_-0.14541",-2.3,"Congruent","-1",0.14541,"down",0,0.536
"S003","Illusion_Session2",NA,15.5086166666667,"1920x937",1.79904,60.27,"chrome","107.0.0","Windows 10","MullerLyer",1,48,"MullerLyer_8.21429_-0.14541",8.21429,"Incongruent","-1",0.14541,"up",1,0.918
"S003","Illusion_Session2",NA,15.5086166666667,"1920x937",1.79904,60.27,"chrome","107.0.0","Windows 10","MullerLyer",1,49,"MullerLyer_-8.21429_0.14541",-8.21429,"Congruent","1",0.14541,"up",0,0.532
"S003","Illusion_Session2",NA,15.5086166666667,"1920x937",1.79904,60.27,"chrome","107.0.0","Windows 10","MullerLyer",1,50,"MullerLyer_20.04286_-0.3500",20.04286,"Incongruent","-1",0.35,"down",0,0.646
"S003","Illusion_Session2",NA,15.5086166666667,"1920x937",1.79904,60.27,"chrome","107.0.0","Windows 10","MullerLyer",1,51,"MullerLyer_-14.12857_-0.3500",-14.12857,"Congruent","-1",0.35,"down",0,0.608
"S003","Illusion_Session2",NA,15.5086166666667,"1920x937",1.79904,60.27,"chrome","107.0.0","Windows 10","MullerLyer",1,52,"MullerLyer_-2.3000_-0.3500",-2.3,"Congruent","-1",0.35,"down",0,0.71
"S003","Illusion_Session2",NA,15.5086166666667,"1920x937",1.79904,60.27,"chrome","107.0.0","Windows 10","MullerLyer",1,53,"MullerLyer_14.12857_-0.07627",14.12857,"Incongruent","-1",0.07627,"up",1,0.63
"S003","Illusion_Session2",NA,15.5086166666667,"1920x937",1.79904,60.27,"chrome","107.0.0","Windows 10","MullerLyer",1,54,"MullerLyer_20.04286_0.14541",20.04286,"Incongruent","1",0.14541,"down",1,0.687
"S003","Illusion_Session2",NA,15.5086166666667,"1920x937",1.79904,60.27,"chrome","107.0.0","Windows 10","MullerLyer",1,55,"MullerLyer_8.21429_-0.23665",8.21429,"Incongruent","-1",0.23665,"down",0,0.807
"S003","Illusion_Session2",NA,15.5086166666667,"1920x937",1.79904,60.27,"chrome","107.0.0","Windows 10","MullerLyer",1,56,"MullerLyer_14.12857_0.14541",14.12857,"Incongruent","1",0.14541,"down",1,0.783
"S003","Illusion_Session2",NA,15.5086166666667,"1920x937",1.79904,60.27,"chrome","107.0.0","Windows 10","MullerLyer",1,57,"MullerLyer_-14.12857_0.23665",-14.12857,"Congruent","1",0.23665,"up",0,0.548
"S003","Illusion_Session2",NA,15.5086166666667,"1920x937",1.79904,60.27,"chrome","107.0.0","Windows 10","MullerLyer",1,58,"MullerLyer_20.04286_0.23665",20.04286,"Incongruent","1",0.23665,"down",1,0.609
"S003","Illusion_Session2",NA,15.5086166666667,"1920x937",1.79904,60.27,"chrome","107.0.0","Windows 10","MullerLyer",1,59,"MullerLyer_-8.21429_-0.07627",-8.21429,"Congruent","-1",0.07627,"down",0,0.508
"S003","Illusion_Session2",NA,15.5086166666667,"1920x937",1.79904,60.27,"chrome","107.0.0","Windows 10","MullerLyer",1,60,"MullerLyer_-20.04286_-0.07627",-20.04286,"Congruent","-1",0.07627,"down",0,1.252
"S003","Illusion_Session2",NA,15.5086166666667,"1920x937",1.79904,60.27,"chrome","107.0.0","Windows 10","MullerLyer",1,61,"MullerLyer_8.21429_0.07627",8.21429,"Incongruent","1",0.07627,"up",0,1.837
"S003","Illusion_Session2",NA,15.5086166666667,"1920x937",1.79904,60.27,"chrome","107.0.0","Windows 10","MullerLyer",1,62,"MullerLyer_-8.21429_-0.3500",-8.21429,"Congruent","-1",0.35,"down",0,0.979
"S003","Illusion_Session2",NA,15.5086166666667,"1920x937",1.79904,60.27,"chrome","107.0.0","Windows 10","MullerLyer",1,63,"MullerLyer_-14.12857_-0.07627",-14.12857,"Congruent","-1",0.07627,"down",0,0.583
"S003","Illusion_Session2",NA,15.5086166666667,"1920x937",1.79904,60.27,"chrome","107.0.0","Windows 10","MullerLyer",1,64,"MullerLyer_14.12857_-0.14541",14.12857,"Incongruent","-1",0.14541,"up",1,1.012
"S003","Illusion_Session2",NA,15.5086166666667,"1920x937",1.79904,60.27,"chrome","107.0.0","Windows 10","MullerLyer",1,65,"MullerLyer_2.30000_-0.3500",2.3,"Incongruent","-1",0.35,"down",0,0.588
"S003","Illusion_Session2",NA,15.5086166666667,"1920x937",1.79904,60.27,"chrome","107.0.0","Windows 10","MullerLyer",1,66,"MullerLyer_14.12857_-0.23665",14.12857,"Incongruent","-1",0.23665,"down",0,0.825
"S003","Illusion_Session2",NA,15.5086166666667,"1920x937",1.79904,60.27,"chrome","107.0.0","Windows 10","MullerLyer",1,67,"MullerLyer_-2.3000_0.23665",-2.3,"Congruent","1",0.23665,"up",0,0.579
"S003","Illusion_Session2",NA,15.5086166666667,"1920x937",1.79904,60.27,"chrome","107.0.0","Windows 10","MullerLyer",1,68,"MullerLyer_2.30000_-0.07627",2.3,"Incongruent","-1",0.07627,"down",0,0.595
"S003","Illusion_Session2",NA,15.5086166666667,"1920x937",1.79904,60.27,"chrome","107.0.0","Windows 10","MullerLyer",1,69,"MullerLyer_-20.04286_-0.14541",-20.04286,"Congruent","-1",0.14541,"down",0,0.563
"S003","Illusion_Session2",NA,15.5086166666667,"1920x937",1.79904,60.27,"chrome","107.0.0","Windows 10","MullerLyer",1,70,"MullerLyer_2.30000_0.14541",2.3,"Incongruent","1",0.14541,"up",0,0.748
"S003","Illusion_Session2",NA,15.5086166666667,"1920x937",1.79904,60.27,"chrome","107.0.0","Windows 10","MullerLyer",1,71,"MullerLyer_20.04286_-0.14541",20.04286,"Incongruent","-1",0.14541,"up",1,0.594
"S003","Illusion_Session2",NA,15.5086166666667,"1920x937",1.79904,60.27,"chrome","107.0.0","Windows 10","MullerLyer",1,72,"MullerLyer_-8.21429_-0.14541",-8.21429,"Congruent","-1",0.14541,"down",0,0.614
"S003","Illusion_Session2",NA,15.5086166666667,"1920x937",1.79904,60.27,"chrome","107.0.0","Windows 10","MullerLyer",1,73,"MullerLyer_8.21429_0.23665",8.21429,"Incongruent","1",0.23665,"up",0,0.659
"S003","Illusion_Session2",NA,15.5086166666667,"1920x937",1.79904,60.27,"chrome","107.0.0","Windows 10","MullerLyer",1,74,"MullerLyer_14.12857_0.35000",14.12857,"Incongruent","1",0.35,"up",0,0.522
"S003","Illusion_Session2",NA,15.5086166666667,"1920x937",1.79904,60.27,"chrome","107.0.0","Windows 10","MullerLyer",1,75,"MullerLyer_-14.12857_-0.23665",-14.12857,"Congruent","-1",0.23665,"down",0,0.816
"S003","Illusion_Session2",NA,15.5086166666667,"1920x937",1.79904,60.27,"chrome","107.0.0","Windows 10","MullerLyer",1,76,"MullerLyer_8.21429_0.35000",8.21429,"Incongruent","1",0.35,"down",1,0.641
"S003","Illusion_Session2",NA,15.5086166666667,"1920x937",1.79904,60.27,"chrome","107.0.0","Windows 10","MullerLyer",1,77,"MullerLyer_-2.3000_-0.23665",-2.3,"Congruent","-1",0.23665,"down",0,0.668
"S003","Illusion_Session2",NA,15.5086166666667,"1920x937",1.79904,60.27,"chrome","107.0.0","Windows 10","MullerLyer",1,78,"MullerLyer_2.30000_-0.14541",2.3,"Incongruent","-1",0.14541,"up",1,1.324
"S003","Illusion_Session2",NA,15.5086166666667,"1920x937",1.79904,60.27,"chrome","107.0.0","Windows 10","MullerLyer",1,79,"MullerLyer_2.30000_-0.23665",2.3,"Incongruent","-1",0.23665,"down",0,0.916
"S003","Illusion_Session2",NA,15.5086166666667,"1920x937",1.79904,60.27,"chrome","107.0.0","Windows 10","MullerLyer",1,80,"MullerLyer_-2.3000_0.07627",-2.3,"Congruent","1",0.07627,"up",0,0.604
"S003","Illusion_Session2",NA,15.5086166666667,"1920x937",1.79904,60.27,"chrome","107.0.0","Windows 10","MullerLyer",1,81,"MullerLyer_14.12857_0.07627",14.12857,"Incongruent","1",0.07627,"down",1,0.611
"S003","Illusion_Session2",NA,15.5086166666667,"1920x937",1.79904,60.27,"chrome","107.0.0","Windows 10","MullerLyer",1,82,"MullerLyer_14.12857_-0.3500",14.12857,"Incongruent","-1",0.35,"down",0,0.532
"S003","Illusion_Session2",NA,15.5086166666667,"1920x937",1.79904,60.27,"chrome","107.0.0","Windows 10","VerticalHorizontal",1,1,"VerticalHorizontal_-3.3000_-0.16217",-3.3,"Congruent","-1",0.16217,"right",0,0.616
"S003","Illusion_Session2",NA,15.5086166666667,"1920x937",1.79904,60.27,"chrome","107.0.0","Windows 10","VerticalHorizontal",1,2,"VerticalHorizontal_11.78571_0.22500",11.78571,"Incongruent","1",0.225,"left",0,0.564
"S003","Illusion_Session2",NA,15.5086166666667,"1920x937",1.79904,60.27,"chrome","107.0.0","Windows 10","VerticalHorizontal",1,3,"VerticalHorizontal_11.78571_-0.16217",11.78571,"Incongruent","-1",0.16217,"right",0,0.527
"S003","Illusion_Session2",NA,15.5086166666667,"1920x937",1.79904,60.27,"chrome","107.0.0","Windows 10","VerticalHorizontal",1,4,"VerticalHorizontal_20.27143_0.22500",20.27143,"Incongruent","1",0.225,"left",0,0.566
"S003","Illusion_Session2",NA,15.5086166666667,"1920x937",1.79904,60.27,"chrome","107.0.0","Windows 10","VerticalHorizontal",1,5,"VerticalHorizontal_-28.75714_0.16217",-28.75714,"Congruent","1",0.16217,"left",0,0.546
"S003","Illusion_Session2",NA,15.5086166666667,"1920x937",1.79904,60.27,"chrome","107.0.0","Windows 10","VerticalHorizontal",1,6,"VerticalHorizontal_-3.3000_-0.2250",-3.3,"Congruent","-1",0.225,"right",0,0.47
"S003","Illusion_Session2",NA,15.5086166666667,"1920x937",1.79904,60.27,"chrome","107.0.0","Windows 10","VerticalHorizontal",1,7,"VerticalHorizontal_-20.27143_0.16217",-20.27143,"Congruent","1",0.16217,"left",0,0.48
"S003","Illusion_Session2",NA,15.5086166666667,"1920x937",1.79904,60.27,"chrome","107.0.0","Windows 10","VerticalHorizontal",1,8,"VerticalHorizontal_-20.27143_-0.16217",-20.27143,"Congruent","-1",0.16217,"right",0,0.416
"S003","Illusion_Session2",NA,15.5086166666667,"1920x937",1.79904,60.27,"chrome","107.0.0","Windows 10","VerticalHorizontal",1,9,"VerticalHorizontal_28.75714_0.10960",28.75714,"Incongruent","1",0.1096,"right",1,0.421
"S003","Illusion_Session2",NA,15.5086166666667,"1920x937",1.79904,60.27,"chrome","107.0.0","Windows 10","VerticalHorizontal",1,10,"VerticalHorizontal_-20.27143_-0.2250",-20.27143,"Congruent","-1",0.225,"right",0,0.458
"S003","Illusion_Session2",NA,15.5086166666667,"1920x937",1.79904,60.27,"chrome","107.0.0","Windows 10","VerticalHorizontal",1,11,"VerticalHorizontal_-28.75714_-0.0673",-28.75714,"Congruent","-1",0.0673,"right",0,0.499
"S003","Illusion_Session2",NA,15.5086166666667,"1920x937",1.79904,60.27,"chrome","107.0.0","Windows 10","VerticalHorizontal",1,12,"VerticalHorizontal_-20.27143_0.06730",-20.27143,"Congruent","1",0.0673,"left",0,0.441
"S003","Illusion_Session2",NA,15.5086166666667,"1920x937",1.79904,60.27,"chrome","107.0.0","Windows 10","VerticalHorizontal",1,13,"VerticalHorizontal_3.30000_0.16217",3.3,"Incongruent","1",0.16217,"left",0,0.619
"S003","Illusion_Session2",NA,15.5086166666667,"1920x937",1.79904,60.27,"chrome","107.0.0","Windows 10","VerticalHorizontal",1,14,"VerticalHorizontal_3.30000_0.10960",3.3,"Incongruent","1",0.1096,"left",0,0.665
"S003","Illusion_Session2",NA,15.5086166666667,"1920x937",1.79904,60.27,"chrome","107.0.0","Windows 10","VerticalHorizontal",1,15,"VerticalHorizontal_3.30000_0.22500",3.3,"Incongruent","1",0.225,"left",0,0.672
"S003","Illusion_Session2",NA,15.5086166666667,"1920x937",1.79904,60.27,"chrome","107.0.0","Windows 10","VerticalHorizontal",1,16,"VerticalHorizontal_11.78571_-0.0673",11.78571,"Incongruent","-1",0.0673,"right",0,0.511
"S003","Illusion_Session2",NA,15.5086166666667,"1920x937",1.79904,60.27,"chrome","107.0.0","Windows 10","VerticalHorizontal",1,17,"VerticalHorizontal_11.78571_-0.2250",11.78571,"Incongruent","-1",0.225,"right",0,0.53
"S003","Illusion_Session2",NA,15.5086166666667,"1920x937",1.79904,60.27,"chrome","107.0.0","Windows 10","VerticalHorizontal",1,18,"VerticalHorizontal_11.78571_0.10960",11.78571,"Incongruent","1",0.1096,"left",0,0.59
"S003","Illusion_Session2",NA,15.5086166666667,"1920x937",1.79904,60.27,"chrome","107.0.0","Windows 10","VerticalHorizontal",1,19,"VerticalHorizontal_28.75714_-0.16217",28.75714,"Incongruent","-1",0.16217,"right",0,0.528
"S003","Illusion_Session2",NA,15.5086166666667,"1920x937",1.79904,60.27,"chrome","107.0.0","Windows 10","VerticalHorizontal",1,20,"VerticalHorizontal_20.27143_0.10960",20.27143,"Incongruent","1",0.1096,"left",0,0.797
"S003","Illusion_Session2",NA,15.5086166666667,"1920x937",1.79904,60.27,"chrome","107.0.0","Windows 10","VerticalHorizontal",1,21,"VerticalHorizontal_28.75714_0.22500",28.75714,"Incongruent","1",0.225,"left",0,0.753
"S003","Illusion_Session2",NA,15.5086166666667,"1920x937",1.79904,60.27,"chrome","107.0.0","Windows 10","VerticalHorizontal",1,22,"VerticalHorizontal_28.75714_-0.0673",28.75714,"Incongruent","-1",0.0673,"left",1,0.989
"S003","Illusion_Session2",NA,15.5086166666667,"1920x937",1.79904,60.27,"chrome","107.0.0","Windows 10","VerticalHorizontal",1,23,"VerticalHorizontal_28.75714_-0.2250",28.75714,"Incongruent","-1",0.225,"left",1,0.593
"S003","Illusion_Session2",NA,15.5086166666667,"1920x937",1.79904,60.27,"chrome","107.0.0","Windows 10","VerticalHorizontal",1,24,"VerticalHorizontal_-28.75714_-0.1096",-28.75714,"Congruent","-1",0.1096,"right",0,0.554
"S003","Illusion_Session2",NA,15.5086166666667,"1920x937",1.79904,60.27,"chrome","107.0.0","Windows 10","VerticalHorizontal",1,25,"VerticalHorizontal_-28.75714_0.22500",-28.75714,"Congruent","1",0.225,"left",0,0.578
"S003","Illusion_Session2",NA,15.5086166666667,"1920x937",1.79904,60.27,"chrome","107.0.0","Windows 10","VerticalHorizontal",1,26,"VerticalHorizontal_11.78571_-0.1096",11.78571,"Incongruent","-1",0.1096,"left",1,0.889
"S003","Illusion_Session2",NA,15.5086166666667,"1920x937",1.79904,60.27,"chrome","107.0.0","Windows 10","VerticalHorizontal",1,27,"VerticalHorizontal_20.27143_-0.16217",20.27143,"Incongruent","-1",0.16217,"left",1,0.765
"S003","Illusion_Session2",NA,15.5086166666667,"1920x937",1.79904,60.27,"chrome","107.0.0","Windows 10","VerticalHorizontal",1,28,"VerticalHorizontal_-20.27143_-0.0673",-20.27143,"Congruent","-1",0.0673,"right",0,0.599
"S003","Illusion_Session2",NA,15.5086166666667,"1920x937",1.79904,60.27,"chrome","107.0.0","Windows 10","VerticalHorizontal",1,29,"VerticalHorizontal_-3.3000_0.10960",-3.3,"Congruent","1",0.1096,"left",0,0.635
"S003","Illusion_Session2",NA,15.5086166666667,"1920x937",1.79904,60.27,"chrome","107.0.0","Windows 10","VerticalHorizontal",1,30,"VerticalHorizontal_-11.78571_-0.16217",-11.78571,"Congruent","-1",0.16217,"right",0,0.56
"S003","Illusion_Session2",NA,15.5086166666667,"1920x937",1.79904,60.27,"chrome","107.0.0","Windows 10","VerticalHorizontal",1,31,"VerticalHorizontal_-11.78571_0.22500",-11.78571,"Congruent","1",0.225,"left",0,0.572
"S003","Illusion_Session2",NA,15.5086166666667,"1920x937",1.79904,60.27,"chrome","107.0.0","Windows 10","VerticalHorizontal",1,32,"VerticalHorizontal_-20.27143_0.22500",-20.27143,"Congruent","1",0.225,"left",0,0.488
"S003","Illusion_Session2",NA,15.5086166666667,"1920x937",1.79904,60.27,"chrome","107.0.0","Windows 10","VerticalHorizontal",1,33,"VerticalHorizontal_20.27143_0.16217",20.27143,"Incongruent","1",0.16217,"left",0,0.632
"S003","Illusion_Session2",NA,15.5086166666667,"1920x937",1.79904,60.27,"chrome","107.0.0","Windows 10","VerticalHorizontal",1,34,"VerticalHorizontal_-11.78571_-0.0673",-11.78571,"Congruent","-1",0.0673,"right",0,0.695
"S003","Illusion_Session2",NA,15.5086166666667,"1920x937",1.79904,60.27,"chrome","107.0.0","Windows 10","VerticalHorizontal",1,35,"VerticalHorizontal_-28.75714_0.06730",-28.75714,"Congruent","1",0.0673,"left",0,0.513
"S003","Illusion_Session2",NA,15.5086166666667,"1920x937",1.79904,60.27,"chrome","107.0.0","Windows 10","VerticalHorizontal",1,36,"VerticalHorizontal_-3.3000_-0.1096",-3.3,"Congruent","-1",0.1096,"left",1,0.656
"S003","Illusion_Session2",NA,15.5086166666667,"1920x937",1.79904,60.27,"chrome","107.0.0","Windows 10","VerticalHorizontal",1,37,"VerticalHorizontal_3.30000_-0.0673",3.3,"Incongruent","-1",0.0673,"right",0,0.599
"S003","Illusion_Session2",NA,15.5086166666667,"1920x937",1.79904,60.27,"chrome","107.0.0","Windows 10","VerticalHorizontal",1,38,"VerticalHorizontal_-11.78571_0.10960",-11.78571,"Congruent","1",0.1096,"left",0,0.437
"S003","Illusion_Session2",NA,15.5086166666667,"1920x937",1.79904,60.27,"chrome","107.0.0","Windows 10","VerticalHorizontal",1,39,"VerticalHorizontal_-11.78571_0.06730",-11.78571,"Congruent","1",0.0673,"left",0,0.517
