"Participant","Task","Task_Order","Duration","Screen_Resolution","Screen_Size","Screen_Refresh","Browser","Browser_Version","Device_OS","Illusion_Type","Block","Trial","Stimulus","Illusion_Strength","Illusion_Effect","Illusion_Side","Illusion_Difference","Answer","Error","RT"
"S002","Illusion_Session2",NA,18.8217,"1517x721",1.093757,59.96,"chrome","107.0.0","Windows 10","Ebbinghaus",1,19,"Ebbinghaus_-0.87143_0.11071",-0.87143,"Congruent","1",0.11071,"right",1,"687"
"S002","Illusion_Session2",NA,18.8217,"1517x721",1.093757,59.96,"chrome","107.0.0","Windows 10","Ebbinghaus",1,20,"Ebbinghaus_-0.35714_0.28000",-0.35714,"Congruent","1",0.28,"right",1,"630"
"S002","Illusion_Session2",NA,18.8217,"1517x721",1.093757,59.96,"chrome","107.0.0","Windows 10","Ebbinghaus",1,21,"Ebbinghaus_-0.61429_-0.2800",-0.61429,"Congruent","-1",0.28,"left",1,"598"
"S002","Illusion_Session2",NA,18.8217,"1517x721",1.093757,59.96,"chrome","107.0.0","Windows 10","Ebbinghaus",1,22,"Ebbinghaus_0.61429_0.11071",0.61429,"Incongruent","1",0.11071,"left",0,"1142"
"S002","Illusion_Session2",NA,18.8217,"1517x721",1.093757,59.96,"chrome","107.0.0","Windows 10","Ebbinghaus",1,23,"Ebbinghaus_0.87143_0.11071",0.87143,"Incongruent","1",0.11071,"left",0,"471"
"S002","Illusion_Session2",NA,18.8217,"1517x721",1.093757,59.96,"chrome","107.0.0","Windows 10","Ebbinghaus",1,24,"Ebbinghaus_0.35714_0.15857",0.35714,"Incongruent","1",0.15857,"left",0,"638"
"S002","Illusion_Session2",NA,18.8217,"1517x721",1.093757,59.96,"chrome","107.0.0","Windows 10","Ebbinghaus",1,25,"Ebbinghaus_-0.61429_0.21500",-0.61429,"Congruent","1",0.215,"right",1,"540"
"S002","Illusion_Session2",NA,18.8217,"1517x721",1.093757,59.96,"chrome","107.0.0","Windows 10","Ebbinghaus",1,26,"Ebbinghaus_-0.35714_0.11071",-0.35714,"Congruent","1",0.11071,"right",1,"595"
"S002","Illusion_Session2",NA,18.8217,"1517x721",1.093757,59.96,"chrome","107.0.0","Windows 10","Ebbinghaus",1,27,"Ebbinghaus_0.10000_-0.15857",0.1,"Incongruent","-1",0.15857,"right",0,"623"
"S002","Illusion_Session2",NA,18.8217,"1517x721",1.093757,59.96,"chrome","107.0.0","Windows 10","Ebbinghaus",1,28,"Ebbinghaus_-0.35714_-0.2800",-0.35714,"Congruent","-1",0.28,"left",1,"969"
"S002","Illusion_Session2",NA,18.8217,"1517x721",1.093757,59.96,"chrome","107.0.0","Windows 10","Ebbinghaus",1,29,"Ebbinghaus_0.10000_0.21500",0.1,"Incongruent","1",0.215,"left",0,"961"
"S002","Illusion_Session2",NA,18.8217,"1517x721",1.093757,59.96,"chrome","107.0.0","Windows 10","Ebbinghaus",1,30,"Ebbinghaus_-0.87143_0.28000",-0.87143,"Congruent","1",0.28,"right",1,"596"
"S002","Illusion_Session2",NA,18.8217,"1517x721",1.093757,59.96,"chrome","107.0.0","Windows 10","Ebbinghaus",1,31,"Ebbinghaus_0.35714_0.28000",0.35714,"Incongruent","1",0.28,"left",0,"636"
"S002","Illusion_Session2",NA,18.8217,"1517x721",1.093757,59.96,"chrome","107.0.0","Windows 10","Ebbinghaus",1,32,"Ebbinghaus_0.61429_-0.2150",0.61429,"Incongruent","-1",0.215,"right",0,"596"
"S002","Illusion_Session2",NA,18.8217,"1517x721",1.093757,59.96,"chrome","107.0.0","Windows 10","Ebbinghaus",1,33,"Ebbinghaus_0.61429_-0.15857",0.61429,"Incongruent","-1",0.15857,"right",0,"746"
"S002","Illusion_Session2",NA,18.8217,"1517x721",1.093757,59.96,"chrome","107.0.0","Windows 10","Ebbinghaus",1,34,"Ebbinghaus_-0.87143_-0.11071",-0.87143,"Congruent","-1",0.11071,"left",1,"693"
"S002","Illusion_Session2",NA,18.8217,"1517x721",1.093757,59.96,"chrome","107.0.0","Windows 10","Ebbinghaus",1,35,"Ebbinghaus_-0.1000_0.15857",-0.1,"Congruent","1",0.15857,"right",1,"1000"
"S002","Illusion_Session2",NA,18.8217,"1517x721",1.093757,59.96,"chrome","107.0.0","Windows 10","Ebbinghaus",1,36,"Ebbinghaus_-0.87143_-0.2800",-0.87143,"Congruent","-1",0.28,"left",1,"610"
"S002","Illusion_Session2",NA,18.8217,"1517x721",1.093757,59.96,"chrome","107.0.0","Windows 10","Ebbinghaus",1,37,"Ebbinghaus_0.87143_0.15857",0.87143,"Incongruent","1",0.15857,"left",0,"596"
"S002","Illusion_Session2",NA,18.8217,"1517x721",1.093757,59.96,"chrome","107.0.0","Windows 10","Ebbinghaus",1,38,"Ebbinghaus_0.35714_-0.15857",0.35714,"Incongruent","-1",0.15857,"right",0,"664"
"S002","Illusion_Session2",NA,18.8217,"1517x721",1.093757,59.96,"chrome","107.0.0","Windows 10","Ebbinghaus",1,39,"Ebbinghaus_-0.35714_0.15857",-0.35714,"Congruent","1",0.15857,"right",1,"685"
"S002","Illusion_Session2",NA,18.8217,"1517x721",1.093757,59.96,"chrome","107.0.0","Windows 10","Ebbinghaus",1,40,"Ebbinghaus_-0.35714_-0.15857",-0.35714,"Congruent","-1",0.15857,"left",1,"1070"
"S002","Illusion_Session2",NA,18.8217,"1517x721",1.093757,59.96,"chrome","107.0.0","Windows 10","Ebbinghaus",1,41,"Ebbinghaus_-0.1000_-0.11071",-0.1,"Congruent","-1",0.11071,"left",1,"1265"
"S002","Illusion_Session2",NA,18.8217,"1517x721",1.093757,59.96,"chrome","107.0.0","Windows 10","Ebbinghaus",1,42,"Ebbinghaus_-0.61429_0.11071",-0.61429,"Congruent","1",0.11071,"right",1,"542"
"S002","Illusion_Session2",NA,18.8217,"1517x721",1.093757,59.96,"chrome","107.0.0","Windows 10","Ebbinghaus",1,43,"Ebbinghaus_0.61429_-0.2800",0.61429,"Incongruent","-1",0.28,"right",0,"584"
"S002","Illusion_Session2",NA,18.8217,"1517x721",1.093757,59.96,"chrome","107.0.0","Windows 10","Ebbinghaus",1,44,"Ebbinghaus_0.10000_0.15857",0.1,"Incongruent","1",0.15857,"left",0,"887"
"S002","Illusion_Session2",NA,18.8217,"1517x721",1.093757,59.96,"chrome","107.0.0","Windows 10","Ebbinghaus",1,45,"Ebbinghaus_-0.1000_0.28000",-0.1,"Congruent","1",0.28,"left",0,"1055"
"S002","Illusion_Session2",NA,18.8217,"1517x721",1.093757,59.96,"chrome","107.0.0","Windows 10","Ebbinghaus",1,46,"Ebbinghaus_0.87143_0.28000",0.87143,"Incongruent","1",0.28,"left",0,"632"
"S002","Illusion_Session2",NA,18.8217,"1517x721",1.093757,59.96,"chrome","107.0.0","Windows 10","Ebbinghaus",1,47,"Ebbinghaus_0.10000_-0.2800",0.1,"Incongruent","-1",0.28,"right",0,"1135"
"S002","Illusion_Session2",NA,18.8217,"1517x721",1.093757,59.96,"chrome","107.0.0","Windows 10","Ebbinghaus",1,48,"Ebbinghaus_-0.87143_0.15857",-0.87143,"Congruent","1",0.15857,"right",1,"523"
"S002","Illusion_Session2",NA,18.8217,"1517x721",1.093757,59.96,"chrome","107.0.0","Windows 10","Ebbinghaus",1,49,"Ebbinghaus_-0.61429_0.28000",-0.61429,"Congruent","1",0.28,"right",1,"1471"
"S002","Illusion_Session2",NA,18.8217,"1517x721",1.093757,59.96,"chrome","107.0.0","Windows 10","Ebbinghaus",1,50,"Ebbinghaus_0.61429_0.15857",0.61429,"Incongruent","1",0.15857,"left",0,"935"
"S002","Illusion_Session2",NA,18.8217,"1517x721",1.093757,59.96,"chrome","107.0.0","Windows 10","Ebbinghaus",1,51,"Ebbinghaus_-0.1000_-0.15857",-0.1,"Congruent","-1",0.15857,"left",1,"571"
"S002","Illusion_Session2",NA,18.8217,"1517x721",1.093757,59.96,"chrome","107.0.0","Windows 10","Ebbinghaus",1,52,"Ebbinghaus_0.87143_-0.2150",0.87143,"Incongruent","-1",0.215,"right",0,"1041"
"S002","Illusion_Session2",NA,18.8217,"1517x721",1.093757,59.96,"chrome","107.0.0","Windows 10","Ebbinghaus",1,53,"Ebbinghaus_0.87143_-0.2800",0.87143,"Incongruent","-1",0.28,"right",0,"630"
"S002","Illusion_Session2",NA,18.8217,"1517x721",1.093757,59.96,"chrome","107.0.0","Windows 10","Ebbinghaus",1,54,"Ebbinghaus_0.87143_0.21500",0.87143,"Incongruent","1",0.215,"left",0,"596"
"S002","Illusion_Session2",NA,18.8217,"1517x721",1.093757,59.96,"chrome","107.0.0","Windows 10","Ebbinghaus",1,55,"Ebbinghaus_0.35714_-0.11071",0.35714,"Incongruent","-1",0.11071,"right",0,"902"
"S002","Illusion_Session2",NA,18.8217,"1517x721",1.093757,59.96,"chrome","107.0.0","Windows 10","Ebbinghaus",1,56,"Ebbinghaus_-0.87143_-0.15857",-0.87143,"Congruent","-1",0.15857,"left",1,"779"
"S002","Illusion_Session2",NA,18.8217,"1517x721",1.093757,59.96,"chrome","107.0.0","Windows 10","Ebbinghaus",1,57,"Ebbinghaus_0.35714_0.21500",0.35714,"Incongruent","1",0.215,"left",0,"619"
"S002","Illusion_Session2",NA,18.8217,"1517x721",1.093757,59.96,"chrome","107.0.0","Windows 10","Ebbinghaus",1,58,"Ebbinghaus_-0.61429_-0.2150",-0.61429,"Congruent","-1",0.215,"left",1,"620"
"S002","Illusion_Session2",NA,18.8217,"1517x721",1.093757,59.96,"chrome","107.0.0","Windows 10","Ebbinghaus",1,59,"Ebbinghaus_-0.35714_-0.11071",-0.35714,"Congruent","-1",0.11071,"left",1,"667"
"S002","Illusion_Session2",NA,18.8217,"1517x721",1.093757,59.96,"chrome","107.0.0","Windows 10","Ebbinghaus",1,60,"Ebbinghaus_-0.61429_-0.11071",-0.61429,"Congruent","-1",0.11071,"left",1,"642"
"S002","Illusion_Session2",NA,18.8217,"1517x721",1.093757,59.96,"chrome","107.0.0","Windows 10","Ebbinghaus",1,61,"Ebbinghaus_-0.1000_0.21500",-0.1,"Congruent","1",0.215,"right",1,"1208"
"S002","Illusion_Session2",NA,18.8217,"1517x721",1.093757,59.96,"chrome","107.0.0","Windows 10","Ebbinghaus",1,62,"Ebbinghaus_-0.61429_-0.15857",-0.61429,"Congruent","-1",0.15857,"left",1,"882"
"S002","Illusion_Session2",NA,18.8217,"1517x721",1.093757,59.96,"chrome","107.0.0","Windows 10","Ebbinghaus",1,63,"Ebbinghaus_-0.35714_-0.2150",-0.35714,"Congruent","-1",0.215,"left",1,"766"
"S002","Illusion_Session2",NA,18.8217,"1517x721",1.093757,59.96,"chrome","107.0.0","Windows 10","Ebbinghaus",1,64,"Ebbinghaus_0.10000_0.11071",0.1,"Incongruent","1",0.11071,"left",0,"542"
"S002","Illusion_Session2",NA,18.8217,"1517x721",1.093757,59.96,"chrome","107.0.0","Windows 10","Ebbinghaus",1,65,"Ebbinghaus_-0.87143_0.21500",-0.87143,"Congruent","1",0.215,"right",1,"508"
"S002","Illusion_Session2",NA,18.8217,"1517x721",1.093757,59.96,"chrome","107.0.0","Windows 10","Ebbinghaus",1,66,"Ebbinghaus_-0.1000_0.11071",-0.1,"Congruent","1",0.11071,"right",1,"917"
"S002","Illusion_Session2",NA,18.8217,"1517x721",1.093757,59.96,"chrome","107.0.0","Windows 10","Ebbinghaus",1,67,"Ebbinghaus_0.10000_-0.2150",0.1,"Incongruent","-1",0.215,"right",0,"571"
"S002","Illusion_Session2",NA,18.8217,"1517x721",1.093757,59.96,"chrome","107.0.0","Windows 10","Ebbinghaus",1,68,"Ebbinghaus_0.10000_-0.11071",0.1,"Incongruent","-1",0.11071,"right",0,"777"
"S002","Illusion_Session2",NA,18.8217,"1517x721",1.093757,59.96,"chrome","107.0.0","Windows 10","Ebbinghaus",1,69,"Ebbinghaus_0.61429_0.28000",0.61429,"Incongruent","1",0.28,"left",0,"626"
"S002","Illusion_Session2",NA,18.8217,"1517x721",1.093757,59.96,"chrome","107.0.0","Windows 10","Ebbinghaus",1,70,"Ebbinghaus_0.10000_0.28000",0.1,"Incongruent","1",0.28,"left",0,"1276"
"S002","Illusion_Session2",NA,18.8217,"1517x721",1.093757,59.96,"chrome","107.0.0","Windows 10","Ebbinghaus",1,71,"Ebbinghaus_-0.61429_0.15857",-0.61429,"Congruent","1",0.15857,"right",1,"608"
"S002","Illusion_Session2",NA,18.8217,"1517x721",1.093757,59.96,"chrome","107.0.0","Windows 10","Ebbinghaus",1,72,"Ebbinghaus_-0.35714_0.21500",-0.35714,"Congruent","1",0.215,"right",1,"766"
"S002","Illusion_Session2",NA,18.8217,"1517x721",1.093757,59.96,"chrome","107.0.0","Windows 10","Ebbinghaus",1,73,"Ebbinghaus_-0.1000_-0.2800",-0.1,"Congruent","-1",0.28,"right",0,"980"
"S002","Illusion_Session2",NA,18.8217,"1517x721",1.093757,59.96,"chrome","107.0.0","Windows 10","Ebbinghaus",1,74,"Ebbinghaus_0.61429_-0.11071",0.61429,"Incongruent","-1",0.11071,"right",0,"897"
"S002","Illusion_Session2",NA,18.8217,"1517x721",1.093757,59.96,"chrome","107.0.0","Windows 10","Ebbinghaus",1,75,"Ebbinghaus_0.61429_0.21500",0.61429,"Incongruent","1",0.215,"left",0,"1600"
"S002","Illusion_Session2",NA,18.8217,"1517x721",1.093757,59.96,"chrome","107.0.0","Windows 10","Ebbinghaus",1,76,"Ebbinghaus_0.87143_-0.11071",0.87143,"Incongruent","-1",0.11071,"right",0,"4698"
"S002","Illusion_Session2",NA,18.8217,"1517x721",1.093757,59.96,"chrome","107.0.0","Windows 10","Ebbinghaus",1,77,"Ebbinghaus_0.35714_-0.2800",0.35714,"Incongruent","-1",0.28,"right",0,"589"
"S002","Illusion_Session2",NA,18.8217,"1517x721",1.093757,59.96,"chrome","107.0.0","Windows 10","Ebbinghaus",1,78,"Ebbinghaus_-0.87143_-0.2150",-0.87143,"Congruent","-1",0.215,"left",1,"713"
"S002","Illusion_Session2",NA,18.8217,"1517x721",1.093757,59.96,"chrome","107.0.0","Windows 10","Ebbinghaus",1,79,"Ebbinghaus_0.35714_0.11071",0.35714,"Incongruent","1",0.11071,"left",0,"1625"
"S002","Illusion_Session2",NA,18.8217,"1517x721",1.093757,59.96,"chrome","107.0.0","Windows 10","Ebbinghaus",1,80,"Ebbinghaus_-0.1000_-0.2150",-0.1,"Congruent","-1",0.215,"left",1,"2295"
"S002","Illusion_Session2",NA,18.8217,"1517x721",1.093757,59.96,"chrome","107.0.0","Windows 10","Ebbinghaus",1,81,"Ebbinghaus_0.35714_-0.2150",0.35714,"Incongruent","-1",0.215,"right",0,"790"
"S002","Illusion_Session2",NA,18.8217,"1517x721",1.093757,59.96,"chrome","107.0.0","Windows 10","Ebbinghaus",1,82,"Ebbinghaus_0.87143_-0.15857",0.87143,"Incongruent","-1",0.15857,"right",0,"1280"
"S002","Illusion_Session2",NA,18.8217,"1517x721",1.093757,59.96,"chrome","107.0.0","Windows 10","VerticalHorizontal",1,1,"VerticalHorizontal_-11.78571_0.06730",-11.78571,"Congruent","1",0.0673,"left",0,"1257"
"S002","Illusion_Session2",NA,18.8217,"1517x721",1.093757,59.96,"chrome","107.0.0","Windows 10","VerticalHorizontal",1,2,"VerticalHorizontal_-20.27143_-0.2250",-20.27143,"Congruent","-1",0.225,"left",1,"309"
"S002","Illusion_Session2",NA,18.8217,"1517x721",1.093757,59.96,"chrome","107.0.0","Windows 10","VerticalHorizontal",1,3,"VerticalHorizontal_28.75714_0.10960",28.75714,"Incongruent","1",0.1096,"left",0,"674"
"S002","Illusion_Session2",NA,18.8217,"1517x721",1.093757,59.96,"chrome","107.0.0","Windows 10","VerticalHorizontal",1,4,"VerticalHorizontal_-28.75714_-0.2250",-28.75714,"Congruent","-1",0.225,"right",0,"617"
"S002","Illusion_Session2",NA,18.8217,"1517x721",1.093757,59.96,"chrome","107.0.0","Windows 10","VerticalHorizontal",1,5,"VerticalHorizontal_-28.75714_0.16217",-28.75714,"Congruent","1",0.16217,"left",0,"655"
"S002","Illusion_Session2",NA,18.8217,"1517x721",1.093757,59.96,"chrome","107.0.0","Windows 10","VerticalHorizontal",1,6,"VerticalHorizontal_-20.27143_-0.1096",-20.27143,"Congruent","-1",0.1096,"right",0,"548"
"S002","Illusion_Session2",NA,18.8217,"1517x721",1.093757,59.96,"chrome","107.0.0","Windows 10","VerticalHorizontal",1,7,"VerticalHorizontal_20.27143_-0.16217",20.27143,"Incongruent","-1",0.16217,"right",0,"853"
"S002","Illusion_Session2",NA,18.8217,"1517x721",1.093757,59.96,"chrome","107.0.0","Windows 10","VerticalHorizontal",1,8,"VerticalHorizontal_20.27143_0.16217",20.27143,"Incongruent","1",0.16217,"left",0,"1449"
"S002","Illusion_Session2",NA,18.8217,"1517x721",1.093757,59.96,"chrome","107.0.0","Windows 10","VerticalHorizontal",1,9,"VerticalHorizontal_11.78571_0.10960",11.78571,"Incongruent","1",0.1096,"right",1,"1208"
"S002","Illusion_Session2",NA,18.8217,"1517x721",1.093757,59.96,"chrome","107.0.0","Windows 10","VerticalHorizontal",1,10,"VerticalHorizontal_-28.75714_0.06730",-28.75714,"Congruent","1",0.0673,"left",0,"998"
"S002","Illusion_Session2",NA,18.8217,"1517x721",1.093757,59.96,"chrome","107.0.0","Windows 10","VerticalHorizontal",1,11,"VerticalHorizontal_3.30000_0.16217",3.3,"Incongruent","1",0.16217,"right",1,"775"
"S002","Illusion_Session2",NA,18.8217,"1517x721",1.093757,59.96,"chrome","107.0.0","Windows 10","VerticalHorizontal",1,12,"VerticalHorizontal_-28.75714_-0.16217",-28.75714,"Congruent","-1",0.16217,"right",0,"753"
"S002","Illusion_Session2",NA,18.8217,"1517x721",1.093757,59.96,"chrome","107.0.0","Windows 10","VerticalHorizontal",1,13,"VerticalHorizontal_-3.3000_0.16217",-3.3,"Congruent","1",0.16217,"right",1,"966"
"S002","Illusion_Session2",NA,18.8217,"1517x721",1.093757,59.96,"chrome","107.0.0","Windows 10","VerticalHorizontal",1,14,"VerticalHorizontal_3.30000_-0.16217",3.3,"Incongruent","-1",0.16217,"right",0,"1078"
"S002","Illusion_Session2",NA,18.8217,"1517x721",1.093757,59.96,"chrome","107.0.0","Windows 10","VerticalHorizontal",1,15,"VerticalHorizontal_-20.27143_0.10960",-20.27143,"Congruent","1",0.1096,"left",0,"1638"
"S002","Illusion_Session2",NA,18.8217,"1517x721",1.093757,59.96,"chrome","107.0.0","Windows 10","VerticalHorizontal",1,16,"VerticalHorizontal_-11.78571_0.10960",-11.78571,"Congruent","1",0.1096,"left",0,"996"
"S002","Illusion_Session2",NA,18.8217,"1517x721",1.093757,59.96,"chrome","107.0.0","Windows 10","VerticalHorizontal",1,17,"VerticalHorizontal_20.27143_-0.1096",20.27143,"Incongruent","-1",0.1096,"right",0,"2945"
"S002","Illusion_Session2",NA,18.8217,"1517x721",1.093757,59.96,"chrome","107.0.0","Windows 10","VerticalHorizontal",1,18,"VerticalHorizontal_-3.3000_-0.1096",-3.3,"Congruent","-1",0.1096,"right",0,"819"
"S002","Illusion_Session2",NA,18.8217,"1517x721",1.093757,59.96,"chrome","107.0.0","Windows 10","VerticalHorizontal",1,19,"VerticalHorizontal_28.75714_-0.1096",28.75714,"Incongruent","-1",0.1096,"right",0,"1362"
"S002","Illusion_Session2",NA,18.8217,"1517x721",1.093757,59.96,"chrome","107.0.0","Windows 10","VerticalHorizontal",1,20,"VerticalHorizontal_-28.75714_0.10960",-28.75714,"Congruent","1",0.1096,"left",0,"769"
"S002","Illusion_Session2",NA,18.8217,"1517x721",1.093757,59.96,"chrome","107.0.0","Windows 10","VerticalHorizontal",1,21,"VerticalHorizontal_3.30000_-0.1096",3.3,"Incongruent","-1",0.1096,"right",0,"887"
"S002","Illusion_Session2",NA,18.8217,"1517x721",1.093757,59.96,"chrome","107.0.0","Windows 10","VerticalHorizontal",1,22,"VerticalHorizontal_3.30000_0.06730",3.3,"Incongruent","1",0.0673,"right",1,"2412"
"S002","Illusion_Session2",NA,18.8217,"1517x721",1.093757,59.96,"chrome","107.0.0","Windows 10","VerticalHorizontal",1,23,"VerticalHorizontal_-3.3000_-0.2250",-3.3,"Congruent","-1",0.225,"right",0,"1999"
"S002","Illusion_Session2",NA,18.8217,"1517x721",1.093757,59.96,"chrome","107.0.0","Windows 10","VerticalHorizontal",1,24,"VerticalHorizontal_-3.3000_-0.0673",-3.3,"Congruent","-1",0.0673,"right",0,"734"
"S002","Illusion_Session2",NA,18.8217,"1517x721",1.093757,59.96,"chrome","107.0.0","Windows 10","VerticalHorizontal",1,25,"VerticalHorizontal_-28.75714_-0.0673",-28.75714,"Congruent","-1",0.0673,"right",0,"678"
"S002","Illusion_Session2",NA,18.8217,"1517x721",1.093757,59.96,"chrome","107.0.0","Windows 10","VerticalHorizontal",1,26,"VerticalHorizontal_11.78571_0.06730",11.78571,"Incongruent","1",0.0673,"right",1,"553"
"S002","Illusion_Session2",NA,18.8217,"1517x721",1.093757,59.96,"chrome","107.0.0","Windows 10","VerticalHorizontal",1,27,"VerticalHorizontal_20.27143_0.06730",20.27143,"Incongruent","1",0.0673,"right",1,"1542"
"S002","Illusion_Session2",NA,18.8217,"1517x721",1.093757,59.96,"chrome","107.0.0","Windows 10","VerticalHorizontal",1,28,"VerticalHorizontal_-3.3000_0.22500",-3.3,"Congruent","1",0.225,"left",0,"431"
"S002","Illusion_Session2",NA,18.8217,"1517x721",1.093757,59.96,"chrome","107.0.0","Windows 10","VerticalHorizontal",1,29,"VerticalHorizontal_-20.27143_0.16217",-20.27143,"Congruent","1",0.16217,"left",0,"17"
"S002","Illusion_Session2",NA,18.8217,"1517x721",1.093757,59.96,"chrome","107.0.0","Windows 10","VerticalHorizontal",1,30,"VerticalHorizontal_-28.75714_0.22500",-28.75714,"Congruent","1",0.225,"left",0,"1360"
"S002","Illusion_Session2",NA,18.8217,"1517x721",1.093757,59.96,"chrome","107.0.0","Windows 10","VerticalHorizontal",1,31,"VerticalHorizontal_28.75714_0.16217",28.75714,"Incongruent","1",0.16217,"left",0,"1043"
"S002","Illusion_Session2",NA,18.8217,"1517x721",1.093757,59.96,"chrome","107.0.0","Windows 10","VerticalHorizontal",1,32,"VerticalHorizontal_-20.27143_0.06730",-20.27143,"Congruent","1",0.0673,"right",1,"265"
"S002","Illusion_Session2",NA,18.8217,"1517x721",1.093757,59.96,"chrome","107.0.0","Windows 10","VerticalHorizontal",1,33,"VerticalHorizontal_11.78571_-0.0673",11.78571,"Incongruent","-1",0.0673,"right",0,"1384"
"S002","Illusion_Session2",NA,18.8217,"1517x721",1.093757,59.96,"chrome","107.0.0","Windows 10","VerticalHorizontal",1,34,"VerticalHorizontal_-11.78571_0.22500",-11.78571,"Congruent","1",0.225,"left",0,"652"
"S002","Illusion_Session2",NA,18.8217,"1517x721",1.093757,59.96,"chrome","107.0.0","Windows 10","VerticalHorizontal",1,35,"VerticalHorizontal_28.75714_-0.0673",28.75714,"Incongruent","-1",0.0673,"left",1,"490"
"S002","Illusion_Session2",NA,18.8217,"1517x721",1.093757,59.96,"chrome","107.0.0","Windows 10","VerticalHorizontal",1,36,"VerticalHorizontal_11.78571_-0.1096",11.78571,"Incongruent","-1",0.1096,"right",0,"1923"
"S002","Illusion_Session2",NA,18.8217,"1517x721",1.093757,59.96,"chrome","107.0.0","Windows 10","VerticalHorizontal",1,37,"VerticalHorizontal_3.30000_-0.2250",3.3,"Incongruent","-1",0.225,"right",0,"2194"
"S002","Illusion_Session2",NA,18.8217,"1517x721",1.093757,59.96,"chrome","107.0.0","Windows 10","VerticalHorizontal",1,38,"VerticalHorizontal_3.30000_-0.0673",3.3,"Incongruent","-1",0.0673,"right",0,"1446"
"S002","Illusion_Session2",NA,18.8217,"1517x721",1.093757,59.96,"chrome","107.0.0","Windows 10","VerticalHorizontal",1,39,"VerticalHorizontal_28.75714_-0.2250",28.75714,"Incongruent","-1",0.225,"right",0,"451"
"S002","Illusion_Session2",NA,18.8217,"1517x721",1.093757,59.96,"chrome","107.0.0","Windows 10","VerticalHorizontal",1,40,"VerticalHorizontal_11.78571_-0.16217",11.78571,"Incongruent","-1",0.16217,"right",0,"171"
"S002","Illusion_Session2",NA,18.8217,"1517x721",1.093757,59.96,"chrome","107.0.0","Windows 10","VerticalHorizontal",1,41,"VerticalHorizontal_-28.75714_-0.1096",-28.75714,"Congruent","-1",0.1096,"right",0,"2165"
"S002","Illusion_Session2",NA,18.8217,"1517x721",1.093757,59.96,"chrome","107.0.0","Windows 10","VerticalHorizontal",1,42,"VerticalHorizontal_-11.78571_-0.0673",-11.78571,"Congruent","-1",0.0673,"right",0,"1168"
"S002","Illusion_Session2",NA,18.8217,"1517x721",1.093757,59.96,"chrome","107.0.0","Windows 10","VerticalHorizontal",1,43,"VerticalHorizontal_20.27143_-0.2250",20.27143,"Incongruent","-1",0.225,"right",0,"956"
"S002","Illusion_Session2",NA,18.8217,"1517x721",1.093757,59.96,"chrome","107.0.0","Windows 10","VerticalHorizontal",1,44,"VerticalHorizontal_-11.78571_-0.16217",-11.78571,"Congruent","-1",0.16217,"right",0,"96"
"S002","Illusion_Session2",NA,18.8217,"1517x721",1.093757,59.96,"chrome","107.0.0","Windows 10","VerticalHorizontal",1,45,"VerticalHorizontal_3.30000_0.22500",3.3,"Incongruent","1",0.225,"left",0,"818"
"S002","Illusion_Session2",NA,18.8217,"1517x721",1.093757,59.96,"chrome","107.0.0","Windows 10","VerticalHorizontal",1,46,"VerticalHorizontal_-11.78571_0.16217",-11.78571,"Congruent","1",0.16217,"left",0,"549"
"S002","Illusion_Session2",NA,18.8217,"1517x721",1.093757,59.96,"chrome","107.0.0","Windows 10","VerticalHorizontal",1,47,"VerticalHorizontal_-11.78571_-0.1096",-11.78571,"Congruent","-1",0.1096,"right",0,"1626"
"S002","Illusion_Session2",NA,18.8217,"1517x721",1.093757,59.96,"chrome","107.0.0","Windows 10","VerticalHorizontal",1,48,"VerticalHorizontal_28.75714_-0.16217",28.75714,"Incongruent","-1",0.16217,"right",0,"732"
"S002","Illusion_Session2",NA,18.8217,"1517x721",1.093757,59.96,"chrome","107.0.0","Windows 10","VerticalHorizontal",1,49,"VerticalHorizontal_3.30000_0.10960",3.3,"Incongruent","1",0.1096,"left",0,"1063"
"S002","Illusion_Session2",NA,18.8217,"1517x721",1.093757,59.96,"chrome","107.0.0","Windows 10","VerticalHorizontal",1,50,"VerticalHorizontal_11.78571_0.22500",11.78571,"Incongruent","1",0.225,"right",1,"468"
"S002","Illusion_Session2",NA,18.8217,"1517x721",1.093757,59.96,"chrome","107.0.0","Windows 10","VerticalHorizontal",1,51,"VerticalHorizontal_11.78571_0.16217",11.78571,"Incongruent","1",0.16217,"right",1,"1584"
"S002","Illusion_Session2",NA,18.8217,"1517x721",1.093757,59.96,"chrome","107.0.0","Windows 10","VerticalHorizontal",1,52,"VerticalHorizontal_-3.3000_0.06730",-3.3,"Congruent","1",0.0673,"right",1,"760"
"S002","Illusion_Session2",NA,18.8217,"1517x721",1.093757,59.96,"chrome","107.0.0","Windows 10","VerticalHorizontal",1,53,"VerticalHorizontal_20.27143_-0.0673",20.27143,"Incongruent","-1",0.0673,"right",0,"4862"
"S002","Illusion_Session2",NA,18.8217,"1517x721",1.093757,59.96,"chrome","107.0.0","Windows 10","VerticalHorizontal",1,54,"VerticalHorizontal_-20.27143_0.22500",-20.27143,"Congruent","1",0.225,"left",0,"311"
"S002","Illusion_Session2",NA,18.8217,"1517x721",1.093757,59.96,"chrome","107.0.0","Windows 10","VerticalHorizontal",1,55,"VerticalHorizontal_20.27143_0.22500",20.27143,"Incongruent","1",0.225,"left",0,"386"
"S002","Illusion_Session2",NA,18.8217,"1517x721",1.093757,59.96,"chrome","107.0.0","Windows 10","VerticalHorizontal",1,56,"VerticalHorizontal_20.27143_0.10960",20.27143,"Incongruent","1",0.1096,"right",1,"338"
"S002","Illusion_Session2",NA,18.8217,"1517x721",1.093757,59.96,"chrome","107.0.0","Windows 10","VerticalHorizontal",1,57,"VerticalHorizontal_-20.27143_-0.0673",-20.27143,"Congruent","-1",0.0673,"right",0,"342"
"S002","Illusion_Session2",NA,18.8217,"1517x721",1.093757,59.96,"chrome","107.0.0","Windows 10","VerticalHorizontal",1,58,"VerticalHorizontal_-20.27143_-0.16217",-20.27143,"Congruent","-1",0.16217,"right",0,"312"
"S002","Illusion_Session2",NA,18.8217,"1517x721",1.093757,59.96,"chrome","107.0.0","Windows 10","VerticalHorizontal",1,59,"VerticalHorizontal_28.75714_0.22500",28.75714,"Incongruent","1",0.225,"right",1,"562"
"S002","Illusion_Session2",NA,18.8217,"1517x721",1.093757,59.96,"chrome","107.0.0","Windows 10","VerticalHorizontal",1,60,"VerticalHorizontal_11.78571_-0.2250",11.78571,"Incongruent","-1",0.225,"left",1,"358"
"S002","Illusion_Session2",NA,18.8217,"1517x721",1.093757,59.96,"chrome","107.0.0","Windows 10","VerticalHorizontal",1,61,"VerticalHorizontal_-3.3000_0.10960",-3.3,"Congruent","1",0.1096,"left",0,"590"
"S002","Illusion_Session2",NA,18.8217,"1517x721",1.093757,59.96,"chrome","107.0.0","Windows 10","VerticalHorizontal",1,62,"VerticalHorizontal_-11.78571_-0.2250",-11.78571,"Congruent","-1",0.225,"left",1,"1680"
"S002","Illusion_Session2",NA,18.8217,"1517x721",1.093757,59.96,"chrome","107.0.0","Windows 10","VerticalHorizontal",1,63,"VerticalHorizontal_28.75714_0.06730",28.75714,"Incongruent","1",0.0673,"left",0,"2500"
"S002","Illusion_Session2",NA,18.8217,"1517x721",1.093757,59.96,"chrome","107.0.0","Windows 10","VerticalHorizontal",1,64,"VerticalHorizontal_-3.3000_-0.16217",-3.3,"Congruent","-1",0.16217,"left",1,"387"
"S002","Illusion_Session2",NA,18.8217,"1517x721",1.093757,59.96,"chrome","107.0.0","Windows 10","MullerLyer",1,1,"MullerLyer_-14.12857_-0.14541",-14.12857,"Congruent","-1",0.14541,"down",0,"1439"
"S002","Illusion_Session2",NA,18.8217,"1517x721",1.093757,59.96,"chrome","107.0.0","Windows 10","MullerLyer",1,2,"MullerLyer_-14.12857_-0.23665",-14.12857,"Congruent","-1",0.23665,"down",0,"804"
"S002","Illusion_Session2",NA,18.8217,"1517x721",1.093757,59.96,"chrome","107.0.0","Windows 10","MullerLyer",1,3,"MullerLyer_-20.04286_-0.23665",-20.04286,"Congruent","-1",0.23665,"down",0,"582"
"S002","Illusion_Session2",NA,18.8217,"1517x721",1.093757,59.96,"chrome","107.0.0","Windows 10","MullerLyer",1,4,"MullerLyer_20.04286_0.14541",20.04286,"Incongruent","1",0.14541,"down",1,"1156"
"S002","Illusion_Session2",NA,18.8217,"1517x721",1.093757,59.96,"chrome","107.0.0","Windows 10","MullerLyer",1,5,"MullerLyer_14.12857_-0.07627",14.12857,"Incongruent","-1",0.07627,"up",1,"1329"
"S002","Illusion_Session2",NA,18.8217,"1517x721",1.093757,59.96,"chrome","107.0.0","Windows 10","MullerLyer",1,6,"MullerLyer_-8.21429_-0.23665",-8.21429,"Congruent","-1",0.23665,"down",0,"2128"
"S002","Illusion_Session2",NA,18.8217,"1517x721",1.093757,59.96,"chrome","107.0.0","Windows 10","MullerLyer",1,7,"MullerLyer_-14.12857_0.23665",-14.12857,"Congruent","1",0.23665,"up",0,"1213"
"S002","Illusion_Session2",NA,18.8217,"1517x721",1.093757,59.96,"chrome","107.0.0","Windows 10","MullerLyer",1,8,"MullerLyer_-20.04286_-0.14541",-20.04286,"Congruent","-1",0.14541,"down",0,"901"
"S002","Illusion_Session2",NA,18.8217,"1517x721",1.093757,59.96,"chrome","107.0.0","Windows 10","MullerLyer",1,9,"MullerLyer_-14.12857_0.35000",-14.12857,"Congruent","1",0.35,"up",0,"553"
"S002","Illusion_Session2",NA,18.8217,"1517x721",1.093757,59.96,"chrome","107.0.0","Windows 10","MullerLyer",1,10,"MullerLyer_-2.3000_-0.07627",-2.3,"Congruent","-1",0.07627,"down",0,"1699"
"S002","Illusion_Session2",NA,18.8217,"1517x721",1.093757,59.96,"chrome","107.0.0","Windows 10","MullerLyer",1,11,"MullerLyer_20.04286_0.23665",20.04286,"Incongruent","1",0.23665,"down",1,"1209"
"S002","Illusion_Session2",NA,18.8217,"1517x721",1.093757,59.96,"chrome","107.0.0","Windows 10","MullerLyer",1,12,"MullerLyer_20.04286_0.35000",20.04286,"Incongruent","1",0.35,"up",0,"1112"
"S002","Illusion_Session2",NA,18.8217,"1517x721",1.093757,59.96,"chrome","107.0.0","Windows 10","MullerLyer",1,13,"MullerLyer_2.30000_-0.14541",2.3,"Incongruent","-1",0.14541,"up",1,"2625"
"S002","Illusion_Session2",NA,18.8217,"1517x721",1.093757,59.96,"chrome","107.0.0","Windows 10","MullerLyer",1,14,"MullerLyer_-20.04286_0.23665",-20.04286,"Congruent","1",0.23665,"up",0,"507"
"S002","Illusion_Session2",NA,18.8217,"1517x721",1.093757,59.96,"chrome","107.0.0","Windows 10","MullerLyer",1,15,"MullerLyer_2.30000_-0.23665",2.3,"Incongruent","-1",0.23665,"down",0,"1789"
"S002","Illusion_Session2",NA,18.8217,"1517x721",1.093757,59.96,"chrome","107.0.0","Windows 10","MullerLyer",1,16,"MullerLyer_8.21429_0.07627",8.21429,"Incongruent","1",0.07627,"up",0,"502"
"S002","Illusion_Session2",NA,18.8217,"1517x721",1.093757,59.96,"chrome","107.0.0","Windows 10","MullerLyer",1,17,"MullerLyer_-20.04286_0.35000",-20.04286,"Congruent","1",0.35,"up",0,"1155"
"S002","Illusion_Session2",NA,18.8217,"1517x721",1.093757,59.96,"chrome","107.0.0","Windows 10","MullerLyer",1,18,"MullerLyer_2.30000_0.35000",2.3,"Incongruent","1",0.35,"up",0,"651"
"S002","Illusion_Session2",NA,18.8217,"1517x721",1.093757,59.96,"chrome","107.0.0","Windows 10","MullerLyer",1,19,"MullerLyer_-2.3000_0.14541",-2.3,"Congruent","1",0.14541,"up",0,"575"
"S002","Illusion_Session2",NA,18.8217,"1517x721",1.093757,59.96,"chrome","107.0.0","Windows 10","MullerLyer",1,20,"MullerLyer_2.30000_0.14541",2.3,"Incongruent","1",0.14541,"up",0,"1837"
"S002","Illusion_Session2",NA,18.8217,"1517x721",1.093757,59.96,"chrome","107.0.0","Windows 10","MullerLyer",1,21,"MullerLyer_-14.12857_-0.3500",-14.12857,"Congruent","-1",0.35,"down",0,"1252"
"S002","Illusion_Session2",NA,18.8217,"1517x721",1.093757,59.96,"chrome","107.0.0","Windows 10","MullerLyer",1,22,"MullerLyer_8.21429_-0.14541",8.21429,"Incongruent","-1",0.14541,"down",0,"1845"
"S002","Illusion_Session2",NA,18.8217,"1517x721",1.093757,59.96,"chrome","107.0.0","Windows 10","MullerLyer",1,23,"MullerLyer_-8.21429_0.14541",-8.21429,"Congruent","1",0.14541,"up",0,"270"
"S002","Illusion_Session2",NA,18.8217,"1517x721",1.093757,59.96,"chrome","107.0.0","Windows 10","MullerLyer",1,24,"MullerLyer_8.21429_0.35000",8.21429,"Incongruent","1",0.35,"up",0,"274"
"S002","Illusion_Session2",NA,18.8217,"1517x721",1.093757,59.96,"chrome","107.0.0","Windows 10","MullerLyer",1,25,"MullerLyer_-2.3000_-0.14541",-2.3,"Congruent","-1",0.14541,"down",0,"695"
"S002","Illusion_Session2",NA,18.8217,"1517x721",1.093757,59.96,"chrome","107.0.0","Windows 10","MullerLyer",1,26,"MullerLyer_14.12857_-0.23665",14.12857,"Incongruent","-1",0.23665,"down",0,"714"
"S002","Illusion_Session2",NA,18.8217,"1517x721",1.093757,59.96,"chrome","107.0.0","Windows 10","MullerLyer",1,27,"MullerLyer_14.12857_0.07627",14.12857,"Incongruent","1",0.07627,"up",0,"1347"
"S002","Illusion_Session2",NA,18.8217,"1517x721",1.093757,59.96,"chrome","107.0.0","Windows 10","MullerLyer",1,28,"MullerLyer_14.12857_0.14541",14.12857,"Incongruent","1",0.14541,"down",1,"1925"
"S002","Illusion_Session2",NA,18.8217,"1517x721",1.093757,59.96,"chrome","107.0.0","Windows 10","MullerLyer",1,29,"MullerLyer_-20.04286_-0.3500",-20.04286,"Congruent","-1",0.35,"up",1,"557"
"S002","Illusion_Session2",NA,18.8217,"1517x721",1.093757,59.96,"chrome","107.0.0","Windows 10","MullerLyer",1,30,"MullerLyer_-2.3000_0.23665",-2.3,"Congruent","1",0.23665,"up",0,"1113"
"S002","Illusion_Session2",NA,18.8217,"1517x721",1.093757,59.96,"chrome","107.0.0","Windows 10","MullerLyer",1,31,"MullerLyer_-2.3000_-0.3500",-2.3,"Congruent","-1",0.35,"down",0,"704"
"S002","Illusion_Session2",NA,18.8217,"1517x721",1.093757,59.96,"chrome","107.0.0","Windows 10","MullerLyer",1,32,"MullerLyer_14.12857_-0.3500",14.12857,"Incongruent","-1",0.35,"down",0,"561"
"S002","Illusion_Session2",NA,18.8217,"1517x721",1.093757,59.96,"chrome","107.0.0","Windows 10","MullerLyer",1,33,"MullerLyer_-14.12857_0.07627",-14.12857,"Congruent","1",0.07627,"down",1,"3345"
"S002","Illusion_Session2",NA,18.8217,"1517x721",1.093757,59.96,"chrome","107.0.0","Windows 10","MullerLyer",1,34,"MullerLyer_-8.21429_-0.07627",-8.21429,"Congruent","-1",0.07627,"up",1,"1787"
"S002","Illusion_Session2",NA,18.8217,"1517x721",1.093757,59.96,"chrome","107.0.0","Windows 10","MullerLyer",1,35,"MullerLyer_20.04286_0.07627",20.04286,"Incongruent","1",0.07627,"down",1,"609"
"S002","Illusion_Session2",NA,18.8217,"1517x721",1.093757,59.96,"chrome","107.0.0","Windows 10","MullerLyer",1,36,"MullerLyer_20.04286_-0.3500",20.04286,"Incongruent","-1",0.35,"up",1,"657"
"S002","Illusion_Session2",NA,18.8217,"1517x721",1.093757,59.96,"chrome","107.0.0","Windows 10","MullerLyer",1,37,"MullerLyer_14.12857_0.23665",14.12857,"Incongruent","1",0.23665,"up",0,"1039"
"S002","Illusion_Session2",NA,18.8217,"1517x721",1.093757,59.96,"chrome","107.0.0","Windows 10","MullerLyer",1,38,"MullerLyer_-8.21429_0.07627",-8.21429,"Congruent","1",0.07627,"up",0,"850"
"S002","Illusion_Session2",NA,18.8217,"1517x721",1.093757,59.96,"chrome","107.0.0","Windows 10","MullerLyer",1,39,"MullerLyer_8.21429_-0.3500",8.21429,"Incongruent","-1",0.35,"down",0,"720"
"S002","Illusion_Session2",NA,18.8217,"1517x721",1.093757,59.96,"chrome","107.0.0","Windows 10","MullerLyer",1,40,"MullerLyer_-2.3000_-0.23665",-2.3,"Congruent","-1",0.23665,"down",0,"1271"
"S002","Illusion_Session2",NA,18.8217,"1517x721",1.093757,59.96,"chrome","107.0.0","Windows 10","MullerLyer",1,41,"MullerLyer_2.30000_-0.3500",2.3,"Incongruent","-1",0.35,"down",0,"1029"
"S002","Illusion_Session2",NA,18.8217,"1517x721",1.093757,59.96,"chrome","107.0.0","Windows 10","MullerLyer",1,42,"MullerLyer_-8.21429_0.35000",-8.21429,"Congruent","1",0.35,"up",0,"999"
"S002","Illusion_Session2",NA,18.8217,"1517x721",1.093757,59.96,"chrome","107.0.0","Windows 10","MullerLyer",1,43,"MullerLyer_14.12857_-0.14541",14.12857,"Incongruent","-1",0.14541,"down",0,"1378"
"S002","Illusion_Session2",NA,18.8217,"1517x721",1.093757,59.96,"chrome","107.0.0","Windows 10","MullerLyer",1,44,"MullerLyer_8.21429_-0.07627",8.21429,"Incongruent","-1",0.07627,"up",1,"865"
"S002","Illusion_Session2",NA,18.8217,"1517x721",1.093757,59.96,"chrome","107.0.0","Windows 10","MullerLyer",1,45,"MullerLyer_-2.3000_0.35000",-2.3,"Congruent","1",0.35,"up",0,"590"
"S002","Illusion_Session2",NA,18.8217,"1517x721",1.093757,59.96,"chrome","107.0.0","Windows 10","MullerLyer",1,46,"MullerLyer_-14.12857_-0.07627",-14.12857,"Congruent","-1",0.07627,"down",0,"982"
"S002","Illusion_Session2",NA,18.8217,"1517x721",1.093757,59.96,"chrome","107.0.0","Windows 10","MullerLyer",1,47,"MullerLyer_-8.21429_0.23665",-8.21429,"Congruent","1",0.23665,"up",0,"1264"
"S002","Illusion_Session2",NA,18.8217,"1517x721",1.093757,59.96,"chrome","107.0.0","Windows 10","MullerLyer",1,48,"MullerLyer_20.04286_-0.23665",20.04286,"Incongruent","-1",0.23665,"up",1,"1789"
"S002","Illusion_Session2",NA,18.8217,"1517x721",1.093757,59.96,"chrome","107.0.0","Windows 10","MullerLyer",1,49,"MullerLyer_8.21429_-0.23665",8.21429,"Incongruent","-1",0.23665,"down",0,"1258"
"S002","Illusion_Session2",NA,18.8217,"1517x721",1.093757,59.96,"chrome","107.0.0","Windows 10","MullerLyer",1,50,"MullerLyer_14.12857_0.35000",14.12857,"Incongruent","1",0.35,"up",0,"909"
"S002","Illusion_Session2",NA,18.8217,"1517x721",1.093757,59.96,"chrome","107.0.0","Windows 10","MullerLyer",1,51,"MullerLyer_20.04286_-0.07627",20.04286,"Incongruent","-1",0.07627,"down",0,"1557"
"S002","Illusion_Session2",NA,18.8217,"1517x721",1.093757,59.96,"chrome","107.0.0","Windows 10","MullerLyer",1,52,"MullerLyer_2.30000_0.23665",2.3,"Incongruent","1",0.23665,"down",1,"1152"
"S002","Illusion_Session2",NA,18.8217,"1517x721",1.093757,59.96,"chrome","107.0.0","Windows 10","MullerLyer",1,53,"MullerLyer_2.30000_-0.07627",2.3,"Incongruent","-1",0.07627,"up",1,"484"
"S002","Illusion_Session2",NA,18.8217,"1517x721",1.093757,59.96,"chrome","107.0.0","Windows 10","MullerLyer",1,54,"MullerLyer_-8.21429_-0.3500",-8.21429,"Congruent","-1",0.35,"down",0,"483"
"S002","Illusion_Session2",NA,18.8217,"1517x721",1.093757,59.96,"chrome","107.0.0","Windows 10","MullerLyer",1,55,"MullerLyer_-14.12857_0.14541",-14.12857,"Congruent","1",0.14541,"up",0,"598"
"S002","Illusion_Session2",NA,18.8217,"1517x721",1.093757,59.96,"chrome","107.0.0","Windows 10","MullerLyer",1,56,"MullerLyer_8.21429_0.14541",8.21429,"Incongruent","1",0.14541,"up",0,"757"
"S002","Illusion_Session2",NA,18.8217,"1517x721",1.093757,59.96,"chrome","107.0.0","Windows 10","MullerLyer",1,57,"MullerLyer_-2.3000_0.07627",-2.3,"Congruent","1",0.07627,"up",0,"986"
"S002","Illusion_Session2",NA,18.8217,"1517x721",1.093757,59.96,"chrome","107.0.0","Windows 10","MullerLyer",1,58,"MullerLyer_8.21429_0.23665",8.21429,"Incongruent","1",0.23665,"down",1,"480"
"S002","Illusion_Session2",NA,18.8217,"1517x721",1.093757,59.96,"chrome","107.0.0","Windows 10","MullerLyer",1,59,"MullerLyer_-20.04286_0.07627",-20.04286,"Congruent","1",0.07627,"up",0,"443"
"S002","Illusion_Session2",NA,18.8217,"1517x721",1.093757,59.96,"chrome","107.0.0","Windows 10","MullerLyer",1,60,"MullerLyer_-8.21429_-0.14541",-8.21429,"Congruent","-1",0.14541,"up",1,"550"
"S002","Illusion_Session2",NA,18.8217,"1517x721",1.093757,59.96,"chrome","107.0.0","Windows 10","MullerLyer",1,61,"MullerLyer_-20.04286_-0.07627",-20.04286,"Congruent","-1",0.07627,"down",0,"269"
"S002","Illusion_Session2",NA,18.8217,"1517x721",1.093757,59.96,"chrome","107.0.0","Windows 10","MullerLyer",1,62,"MullerLyer_2.30000_0.07627",2.3,"Incongruent","1",0.07627,"down",1,"418"
"S002","Illusion_Session2",NA,18.8217,"1517x721",1.093757,59.96,"chrome","107.0.0","Windows 10","MullerLyer",1,63,"MullerLyer_20.04286_-0.14541",20.04286,"Incongruent","-1",0.14541,"down",0,"1182"
"S002","Illusion_Session2",NA,18.8217,"1517x721",1.093757,59.96,"chrome","107.0.0","Windows 10","MullerLyer",1,64,"MullerLyer_-20.04286_0.14541",-20.04286,"Congruent","1",0.14541,"up",0,"392"
"S002","Illusion_Session2",NA,18.8217,"1517x721",1.093757,59.96,"chrome","107.0.0","Windows 10","MullerLyer",2,1,"MullerLyer_23.0000_0.29056",23,"Incongruent","1",0.29056,"up",0,"1146"
"S002","Illusion_Session2",NA,18.8217,"1517x721",1.093757,59.96,"chrome","107.0.0","Windows 10","MullerLyer",2,2,"MullerLyer_11.17143_-0.18826",11.17143,"Incongruent","-1",0.18826,"down",0,"452"
"S002","Illusion_Session2",NA,18.8217,"1517x721",1.093757,59.96,"chrome","107.0.0","Windows 10","MullerLyer",2,3,"MullerLyer_-11.17143_-0.29056",-11.17143,"Congruent","-1",0.29056,"down",0,"1445"
"S002","Illusion_Session2",NA,18.8217,"1517x721",1.093757,59.96,"chrome","107.0.0","Windows 10","MullerLyer",2,4,"MullerLyer_17.08571_-0.10808",17.08571,"Incongruent","-1",0.10808,"down",0,"958"
"S002","Illusion_Session2",NA,18.8217,"1517x721",1.093757,59.96,"chrome","107.0.0","Windows 10","MullerLyer",2,5,"MullerLyer_-11.17143_-0.10808",-11.17143,"Congruent","-1",0.10808,"down",0,"1137"
"S002","Illusion_Session2",NA,18.8217,"1517x721",1.093757,59.96,"chrome","107.0.0","Windows 10","MullerLyer",2,6,"MullerLyer_-17.08571_0.18826",-17.08571,"Congruent","1",0.18826,"down",1,"2012"
"S002","Illusion_Session2",NA,18.8217,"1517x721",1.093757,59.96,"chrome","107.0.0","Windows 10","MullerLyer",2,7,"MullerLyer_-17.08571_0.05000",-17.08571,"Congruent","1",0.05,"up",0,"845"
"S002","Illusion_Session2",NA,18.8217,"1517x721",1.093757,59.96,"chrome","107.0.0","Windows 10","MullerLyer",2,8,"MullerLyer_-5.25714_0.10808",-5.25714,"Congruent","1",0.10808,"up",0,"551"
"S002","Illusion_Session2",NA,18.8217,"1517x721",1.093757,59.96,"chrome","107.0.0","Windows 10","MullerLyer",2,9,"MullerLyer_5.25714_0.29056",5.25714,"Incongruent","1",0.29056,"up",0,"769"
"S002","Illusion_Session2",NA,18.8217,"1517x721",1.093757,59.96,"chrome","107.0.0","Windows 10","MullerLyer",2,10,"MullerLyer_-23.000_0.05000",-23,"Congruent","1",0.05,"up",0,"8"
"S002","Illusion_Session2",NA,18.8217,"1517x721",1.093757,59.96,"chrome","107.0.0","Windows 10","MullerLyer",2,11,"MullerLyer_11.17143_-0.10808",11.17143,"Incongruent","-1",0.10808,"down",0,"1387"
"S002","Illusion_Session2",NA,18.8217,"1517x721",1.093757,59.96,"chrome","107.0.0","Windows 10","MullerLyer",2,12,"MullerLyer_5.25714_-0.18826",5.25714,"Incongruent","-1",0.18826,"down",0,"1722"
"S002","Illusion_Session2",NA,18.8217,"1517x721",1.093757,59.96,"chrome","107.0.0","Windows 10","MullerLyer",2,13,"MullerLyer_5.25714_-0.29056",5.25714,"Incongruent","-1",0.29056,"down",0,"963"
"S002","Illusion_Session2",NA,18.8217,"1517x721",1.093757,59.96,"chrome","107.0.0","Windows 10","MullerLyer",2,14,"MullerLyer_17.08571_0.05000",17.08571,"Incongruent","1",0.05,"down",1,"1286"
"S002","Illusion_Session2",NA,18.8217,"1517x721",1.093757,59.96,"chrome","107.0.0","Windows 10","MullerLyer",2,15,"MullerLyer_11.17143_-0.29056",11.17143,"Incongruent","-1",0.29056,"down",0,"1107"
"S002","Illusion_Session2",NA,18.8217,"1517x721",1.093757,59.96,"chrome","107.0.0","Windows 10","MullerLyer",2,16,"MullerLyer_-23.000_-0.18826",-23,"Congruent","-1",0.18826,"down",0,"1835"
"S002","Illusion_Session2",NA,18.8217,"1517x721",1.093757,59.96,"chrome","107.0.0","Windows 10","MullerLyer",2,17,"MullerLyer_-17.08571_0.29056",-17.08571,"Congruent","1",0.29056,"up",0,"600"
"S002","Illusion_Session2",NA,18.8217,"1517x721",1.093757,59.96,"chrome","107.0.0","Windows 10","MullerLyer",2,18,"MullerLyer_-11.17143_-0.0500",-11.17143,"Congruent","-1",0.05,"down",0,"2731"
"S002","Illusion_Session2",NA,18.8217,"1517x721",1.093757,59.96,"chrome","107.0.0","Windows 10","MullerLyer",2,19,"MullerLyer_17.08571_0.29056",17.08571,"Incongruent","1",0.29056,"down",1,"1325"
"S002","Illusion_Session2",NA,18.8217,"1517x721",1.093757,59.96,"chrome","107.0.0","Windows 10","MullerLyer",2,20,"MullerLyer_-5.25714_-0.18826",-5.25714,"Congruent","-1",0.18826,"down",0,"682"
"S002","Illusion_Session2",NA,18.8217,"1517x721",1.093757,59.96,"chrome","107.0.0","Windows 10","MullerLyer",2,21,"MullerLyer_23.0000_0.05000",23,"Incongruent","1",0.05,"down",1,"1081"
"S002","Illusion_Session2",NA,18.8217,"1517x721",1.093757,59.96,"chrome","107.0.0","Windows 10","MullerLyer",2,22,"MullerLyer_-11.17143_0.05000",-11.17143,"Congruent","1",0.05,"up",0,"1020"
"S002","Illusion_Session2",NA,18.8217,"1517x721",1.093757,59.96,"chrome","107.0.0","Windows 10","MullerLyer",2,23,"MullerLyer_-23.000_0.18826",-23,"Congruent","1",0.18826,"up",0,"547"
"S002","Illusion_Session2",NA,18.8217,"1517x721",1.093757,59.96,"chrome","107.0.0","Windows 10","MullerLyer",2,24,"MullerLyer_23.0000_-0.0500",23,"Incongruent","-1",0.05,"up",1,"3113"
"S002","Illusion_Session2",NA,18.8217,"1517x721",1.093757,59.96,"chrome","107.0.0","Windows 10","MullerLyer",2,25,"MullerLyer_-17.08571_-0.0500",-17.08571,"Congruent","-1",0.05,"down",0,"602"
"S002","Illusion_Session2",NA,18.8217,"1517x721",1.093757,59.96,"chrome","107.0.0","Windows 10","MullerLyer",2,26,"MullerLyer_11.17143_0.10808",11.17143,"Incongruent","1",0.10808,"down",1,"1289"
"S002","Illusion_Session2",NA,18.8217,"1517x721",1.093757,59.96,"chrome","107.0.0","Windows 10","MullerLyer",2,27,"MullerLyer_23.0000_-0.10808",23,"Incongruent","-1",0.10808,"up",1,"624"
"S002","Illusion_Session2",NA,18.8217,"1517x721",1.093757,59.96,"chrome","107.0.0","Windows 10","MullerLyer",2,28,"MullerLyer_-11.17143_-0.18826",-11.17143,"Congruent","-1",0.18826,"up",1,"1584"
"S002","Illusion_Session2",NA,18.8217,"1517x721",1.093757,59.96,"chrome","107.0.0","Windows 10","MullerLyer",2,29,"MullerLyer_-23.000_-0.29056",-23,"Congruent","-1",0.29056,"down",0,"669"
"S002","Illusion_Session2",NA,18.8217,"1517x721",1.093757,59.96,"chrome","107.0.0","Windows 10","MullerLyer",2,30,"MullerLyer_-11.17143_0.10808",-11.17143,"Congruent","1",0.10808,"up",0,"1436"
"S002","Illusion_Session2",NA,18.8217,"1517x721",1.093757,59.96,"chrome","107.0.0","Windows 10","MullerLyer",2,31,"MullerLyer_23.0000_-0.18826",23,"Incongruent","-1",0.18826,"up",1,"833"
"S002","Illusion_Session2",NA,18.8217,"1517x721",1.093757,59.96,"chrome","107.0.0","Windows 10","MullerLyer",2,32,"MullerLyer_-5.25714_-0.0500",-5.25714,"Congruent","-1",0.05,"down",0,"995"
"S002","Illusion_Session2",NA,18.8217,"1517x721",1.093757,59.96,"chrome","107.0.0","Windows 10","MullerLyer",2,33,"MullerLyer_11.17143_-0.0500",11.17143,"Incongruent","-1",0.05,"down",0,"2119"
"S002","Illusion_Session2",NA,18.8217,"1517x721",1.093757,59.96,"chrome","107.0.0","Windows 10","MullerLyer",2,34,"MullerLyer_-17.08571_-0.29056",-17.08571,"Congruent","-1",0.29056,"down",0,"737"
"S002","Illusion_Session2",NA,18.8217,"1517x721",1.093757,59.96,"chrome","107.0.0","Windows 10","MullerLyer",2,35,"MullerLyer_11.17143_0.29056",11.17143,"Incongruent","1",0.29056,"down",1,"1035"
"S002","Illusion_Session2",NA,18.8217,"1517x721",1.093757,59.96,"chrome","107.0.0","Windows 10","MullerLyer",2,36,"MullerLyer_5.25714_0.10808",5.25714,"Incongruent","1",0.10808,"up",0,"740"
"S002","Illusion_Session2",NA,18.8217,"1517x721",1.093757,59.96,"chrome","107.0.0","Windows 10","MullerLyer",2,37,"MullerLyer_5.25714_0.05000",5.25714,"Incongruent","1",0.05,"up",0,"987"
"S002","Illusion_Session2",NA,18.8217,"1517x721",1.093757,59.96,"chrome","107.0.0","Windows 10","MullerLyer",2,38,"MullerLyer_-17.08571_-0.10808",-17.08571,"Congruent","-1",0.10808,"down",0,"587"
"S002","Illusion_Session2",NA,18.8217,"1517x721",1.093757,59.96,"chrome","107.0.0","Windows 10","MullerLyer",2,39,"MullerLyer_-23.000_0.29056",-23,"Congruent","1",0.29056,"up",0,"648"
"S002","Illusion_Session2",NA,18.8217,"1517x721",1.093757,59.96,"chrome","107.0.0","Windows 10","MullerLyer",2,40,"MullerLyer_11.17143_0.18826",11.17143,"Incongruent","1",0.18826,"up",0,"956"
"S002","Illusion_Session2",NA,18.8217,"1517x721",1.093757,59.96,"chrome","107.0.0","Windows 10","MullerLyer",2,41,"MullerLyer_-5.25714_0.29056",-5.25714,"Congruent","1",0.29056,"down",1,"1261"
"S002","Illusion_Session2",NA,18.8217,"1517x721",1.093757,59.96,"chrome","107.0.0","Windows 10","MullerLyer",2,42,"MullerLyer_23.0000_-0.29056",23,"Incongruent","-1",0.29056,"down",0,"627"
"S002","Illusion_Session2",NA,18.8217,"1517x721",1.093757,59.96,"chrome","107.0.0","Windows 10","MullerLyer",2,43,"MullerLyer_-11.17143_0.29056",-11.17143,"Congruent","1",0.29056,"up",0,"822"
"S002","Illusion_Session2",NA,18.8217,"1517x721",1.093757,59.96,"chrome","107.0.0","Windows 10","MullerLyer",2,44,"MullerLyer_23.0000_0.18826",23,"Incongruent","1",0.18826,"down",1,"894"
"S002","Illusion_Session2",NA,18.8217,"1517x721",1.093757,59.96,"chrome","107.0.0","Windows 10","MullerLyer",2,45,"MullerLyer_5.25714_-0.10808",5.25714,"Incongruent","-1",0.10808,"down",0,"4456"
"S002","Illusion_Session2",NA,18.8217,"1517x721",1.093757,59.96,"chrome","107.0.0","Windows 10","MullerLyer",2,46,"MullerLyer_-5.25714_-0.10808",-5.25714,"Congruent","-1",0.10808,"down",0,"879"
"S002","Illusion_Session2",NA,18.8217,"1517x721",1.093757,59.96,"chrome","107.0.0","Windows 10","MullerLyer",2,47,"MullerLyer_-23.000_0.10808",-23,"Congruent","1",0.10808,"down",1,"4334"
"S002","Illusion_Session2",NA,18.8217,"1517x721",1.093757,59.96,"chrome","107.0.0","Windows 10","MullerLyer",2,48,"MullerLyer_17.08571_0.10808",17.08571,"Incongruent","1",0.10808,"down",1,"305"
"S002","Illusion_Session2",NA,18.8217,"1517x721",1.093757,59.96,"chrome","107.0.0","Windows 10","MullerLyer",2,49,"MullerLyer_11.17143_0.05000",11.17143,"Incongruent","1",0.05,"down",1,"1132"
"S002","Illusion_Session2",NA,18.8217,"1517x721",1.093757,59.96,"chrome","107.0.0","Windows 10","MullerLyer",2,50,"MullerLyer_17.08571_-0.29056",17.08571,"Incongruent","-1",0.29056,"down",0,"964"
"S002","Illusion_Session2",NA,18.8217,"1517x721",1.093757,59.96,"chrome","107.0.0","Windows 10","MullerLyer",2,51,"MullerLyer_-5.25714_0.05000",-5.25714,"Congruent","1",0.05,"down",1,"677"
"S002","Illusion_Session2",NA,18.8217,"1517x721",1.093757,59.96,"chrome","107.0.0","Windows 10","MullerLyer",2,52,"MullerLyer_17.08571_0.18826",17.08571,"Incongruent","1",0.18826,"down",1,"1032"
"S002","Illusion_Session2",NA,18.8217,"1517x721",1.093757,59.96,"chrome","107.0.0","Windows 10","MullerLyer",2,53,"MullerLyer_-5.25714_0.18826",-5.25714,"Congruent","1",0.18826,"down",1,"3171"
"S002","Illusion_Session2",NA,18.8217,"1517x721",1.093757,59.96,"chrome","107.0.0","Windows 10","MullerLyer",2,54,"MullerLyer_-5.25714_-0.29056",-5.25714,"Congruent","-1",0.29056,"up",1,"760"
"S002","Illusion_Session2",NA,18.8217,"1517x721",1.093757,59.96,"chrome","107.0.0","Windows 10","MullerLyer",2,55,"MullerLyer_-23.000_-0.0500",-23,"Congruent","-1",0.05,"down",0,"1374"
"S002","Illusion_Session2",NA,18.8217,"1517x721",1.093757,59.96,"chrome","107.0.0","Windows 10","MullerLyer",2,56,"MullerLyer_-17.08571_0.10808",-17.08571,"Congruent","1",0.10808,"down",1,"499"
"S002","Illusion_Session2",NA,18.8217,"1517x721",1.093757,59.96,"chrome","107.0.0","Windows 10","MullerLyer",2,57,"MullerLyer_-11.17143_0.18826",-11.17143,"Congruent","1",0.18826,"up",0,"353"
"S002","Illusion_Session2",NA,18.8217,"1517x721",1.093757,59.96,"chrome","107.0.0","Windows 10","MullerLyer",2,58,"MullerLyer_17.08571_-0.0500",17.08571,"Incongruent","-1",0.05,"up",1,"701"
"S002","Illusion_Session2",NA,18.8217,"1517x721",1.093757,59.96,"chrome","107.0.0","Windows 10","MullerLyer",2,59,"MullerLyer_23.0000_0.10808",23,"Incongruent","1",0.10808,"up",0,"586"
"S002","Illusion_Session2",NA,18.8217,"1517x721",1.093757,59.96,"chrome","107.0.0","Windows 10","MullerLyer",2,60,"MullerLyer_-17.08571_-0.18826",-17.08571,"Congruent","-1",0.18826,"down",0,"568"
"S002","Illusion_Session2",NA,18.8217,"1517x721",1.093757,59.96,"chrome","107.0.0","Windows 10","MullerLyer",2,61,"MullerLyer_-23.000_-0.10808",-23,"Congruent","-1",0.10808,"down",0,"463"
"S002","Illusion_Session2",NA,18.8217,"1517x721",1.093757,59.96,"chrome","107.0.0","Windows 10","MullerLyer",2,62,"MullerLyer_5.25714_-0.0500",5.25714,"Incongruent","-1",0.05,"up",1,"622"
"S002","Illusion_Session2",NA,18.8217,"1517x721",1.093757,59.96,"chrome","107.0.0","Windows 10","MullerLyer",2,63,"MullerLyer_17.08571_-0.18826",17.08571,"Incongruent","-1",0.18826,"down",0,"425"
"S002","Illusion_Session2",NA,18.8217,"1517x721",1.093757,59.96,"chrome","107.0.0","Windows 10","MullerLyer",2,64,"MullerLyer_5.25714_0.18826",5.25714,"Incongruent","1",0.18826,"up",0,"227"
"S002","Illusion_Session2",NA,18.8217,"1517x721",1.093757,59.96,"chrome","107.0.0","Windows 10","VerticalHorizontal",2,1,"VerticalHorizontal_24.51429_-0.1346",24.51429,"Incongruent","-1",0.1346,"right",0,"642"
"S002","Illusion_Session2",NA,18.8217,"1517x721",1.093757,59.96,"chrome","107.0.0","Windows 10","VerticalHorizontal",2,2,"VerticalHorizontal_7.54286_-0.0500",7.54286,"Incongruent","-1",0.05,"left",1,"457"
"S002","Illusion_Session2",NA,18.8217,"1517x721",1.093757,59.96,"chrome","107.0.0","Windows 10","VerticalHorizontal",2,3,"VerticalHorizontal_-7.54286_0.19230",-7.54286,"Congruent","1",0.1923,"right",1,"303"
"S002","Illusion_Session2",NA,18.8217,"1517x721",1.093757,59.96,"chrome","107.0.0","Windows 10","VerticalHorizontal",2,4,"VerticalHorizontal_-24.51429_-0.1346",-24.51429,"Congruent","-1",0.1346,"right",0,"311"
"S002","Illusion_Session2",NA,18.8217,"1517x721",1.093757,59.96,"chrome","107.0.0","Windows 10","VerticalHorizontal",2,5,"VerticalHorizontal_-16.02857_0.13460",-16.02857,"Congruent","1",0.1346,"right",1,"3403"
"S002","Illusion_Session2",NA,18.8217,"1517x721",1.093757,59.96,"chrome","107.0.0","Windows 10","VerticalHorizontal",2,6,"VerticalHorizontal_16.02857_0.05000",16.02857,"Incongruent","1",0.05,"left",0,"768"
"S002","Illusion_Session2",NA,18.8217,"1517x721",1.093757,59.96,"chrome","107.0.0","Windows 10","VerticalHorizontal",2,7,"VerticalHorizontal_-16.02857_-0.0500",-16.02857,"Congruent","-1",0.05,"right",0,"797"
"S002","Illusion_Session2",NA,18.8217,"1517x721",1.093757,59.96,"chrome","107.0.0","Windows 10","VerticalHorizontal",2,8,"VerticalHorizontal_33.0000_-0.0500",33,"Incongruent","-1",0.05,"left",1,"1469"
"S002","Illusion_Session2",NA,18.8217,"1517x721",1.093757,59.96,"chrome","107.0.0","Windows 10","VerticalHorizontal",2,9,"VerticalHorizontal_-16.02857_-0.1346",-16.02857,"Congruent","-1",0.1346,"right",0,"1256"
"S002","Illusion_Session2",NA,18.8217,"1517x721",1.093757,59.96,"chrome","107.0.0","Windows 10","VerticalHorizontal",2,10,"VerticalHorizontal_33.0000_-0.1923",33,"Incongruent","-1",0.1923,"right",0,"1634"
"S002","Illusion_Session2",NA,18.8217,"1517x721",1.093757,59.96,"chrome","107.0.0","Windows 10","VerticalHorizontal",2,11,"VerticalHorizontal_24.51429_0.05000",24.51429,"Incongruent","1",0.05,"right",1,"1516"
"S002","Illusion_Session2",NA,18.8217,"1517x721",1.093757,59.96,"chrome","107.0.0","Windows 10","VerticalHorizontal",2,12,"VerticalHorizontal_24.51429_-0.0500",24.51429,"Incongruent","-1",0.05,"right",0,"1316"
"S002","Illusion_Session2",NA,18.8217,"1517x721",1.093757,59.96,"chrome","107.0.0","Windows 10","VerticalHorizontal",2,13,"VerticalHorizontal_-24.51429_0.13460",-24.51429,"Congruent","1",0.1346,"left",0,"1652"
"S002","Illusion_Session2",NA,18.8217,"1517x721",1.093757,59.96,"chrome","107.0.0","Windows 10","VerticalHorizontal",2,14,"VerticalHorizontal_-16.02857_-0.1923",-16.02857,"Congruent","-1",0.1923,"right",0,"287"
"S002","Illusion_Session2",NA,18.8217,"1517x721",1.093757,59.96,"chrome","107.0.0","Windows 10","VerticalHorizontal",2,15,"VerticalHorizontal_16.02857_-0.08717",16.02857,"Incongruent","-1",0.08717,"left",1,"1029"
"S002","Illusion_Session2",NA,18.8217,"1517x721",1.093757,59.96,"chrome","107.0.0","Windows 10","VerticalHorizontal",2,16,"VerticalHorizontal_-7.54286_0.05000",-7.54286,"Congruent","1",0.05,"right",1,"729"
"S002","Illusion_Session2",NA,18.8217,"1517x721",1.093757,59.96,"chrome","107.0.0","Windows 10","VerticalHorizontal",2,17,"VerticalHorizontal_24.51429_0.08717",24.51429,"Incongruent","1",0.08717,"right",1,"543"
"S002","Illusion_Session2",NA,18.8217,"1517x721",1.093757,59.96,"chrome","107.0.0","Windows 10","VerticalHorizontal",2,18,"VerticalHorizontal_7.54286_0.13460",7.54286,"Incongruent","1",0.1346,"right",1,"1862"
"S002","Illusion_Session2",NA,18.8217,"1517x721",1.093757,59.96,"chrome","107.0.0","Windows 10","VerticalHorizontal",2,19,"VerticalHorizontal_24.51429_0.13460",24.51429,"Incongruent","1",0.1346,"right",1,"861"
"S002","Illusion_Session2",NA,18.8217,"1517x721",1.093757,59.96,"chrome","107.0.0","Windows 10","VerticalHorizontal",2,20,"VerticalHorizontal_16.02857_0.08717",16.02857,"Incongruent","1",0.08717,"right",1,"165"
"S002","Illusion_Session2",NA,18.8217,"1517x721",1.093757,59.96,"chrome","107.0.0","Windows 10","VerticalHorizontal",2,21,"VerticalHorizontal_-16.02857_0.19230",-16.02857,"Congruent","1",0.1923,"right",1,"1015"
"S002","Illusion_Session2",NA,18.8217,"1517x721",1.093757,59.96,"chrome","107.0.0","Windows 10","VerticalHorizontal",2,22,"VerticalHorizontal_-7.54286_-0.08717",-7.54286,"Congruent","-1",0.08717,"right",0,"639"
"S002","Illusion_Session2",NA,18.8217,"1517x721",1.093757,59.96,"chrome","107.0.0","Windows 10","VerticalHorizontal",2,23,"VerticalHorizontal_7.54286_0.05000",7.54286,"Incongruent","1",0.05,"left",0,"2341"
"S002","Illusion_Session2",NA,18.8217,"1517x721",1.093757,59.96,"chrome","107.0.0","Windows 10","VerticalHorizontal",2,24,"VerticalHorizontal_33.0000_-0.08717",33,"Incongruent","-1",0.08717,"left",1,"404"
"S002","Illusion_Session2",NA,18.8217,"1517x721",1.093757,59.96,"chrome","107.0.0","Windows 10","VerticalHorizontal",2,25,"VerticalHorizontal_24.51429_-0.1923",24.51429,"Incongruent","-1",0.1923,"left",1,"715"
"S002","Illusion_Session2",NA,18.8217,"1517x721",1.093757,59.96,"chrome","107.0.0","Windows 10","VerticalHorizontal",2,26,"VerticalHorizontal_-16.02857_-0.08717",-16.02857,"Congruent","-1",0.08717,"left",1,"1943"
"S002","Illusion_Session2",NA,18.8217,"1517x721",1.093757,59.96,"chrome","107.0.0","Windows 10","VerticalHorizontal",2,27,"VerticalHorizontal_-24.51429_0.08717",-24.51429,"Congruent","1",0.08717,"left",0,"1090"
"S002","Illusion_Session2",NA,18.8217,"1517x721",1.093757,59.96,"chrome","107.0.0","Windows 10","VerticalHorizontal",2,28,"VerticalHorizontal_33.0000_0.19230",33,"Incongruent","1",0.1923,"left",0,"700"
"S002","Illusion_Session2",NA,18.8217,"1517x721",1.093757,59.96,"chrome","107.0.0","Windows 10","VerticalHorizontal",2,29,"VerticalHorizontal_7.54286_0.19230",7.54286,"Incongruent","1",0.1923,"left",0,"646"
"S002","Illusion_Session2",NA,18.8217,"1517x721",1.093757,59.96,"chrome","107.0.0","Windows 10","VerticalHorizontal",2,30,"VerticalHorizontal_-7.54286_0.08717",-7.54286,"Congruent","1",0.08717,"left",0,"709"
"S002","Illusion_Session2",NA,18.8217,"1517x721",1.093757,59.96,"chrome","107.0.0","Windows 10","VerticalHorizontal",2,31,"VerticalHorizontal_16.02857_-0.1346",16.02857,"Incongruent","-1",0.1346,"left",1,"2760"
"S002","Illusion_Session2",NA,18.8217,"1517x721",1.093757,59.96,"chrome","107.0.0","Windows 10","VerticalHorizontal",2,32,"VerticalHorizontal_7.54286_-0.08717",7.54286,"Incongruent","-1",0.08717,"left",1,"587"
"S002","Illusion_Session2",NA,18.8217,"1517x721",1.093757,59.96,"chrome","107.0.0","Windows 10","VerticalHorizontal",2,33,"VerticalHorizontal_-33.000_-0.1346",-33,"Congruent","-1",0.1346,"left",1,"1224"
"S002","Illusion_Session2",NA,18.8217,"1517x721",1.093757,59.96,"chrome","107.0.0","Windows 10","VerticalHorizontal",2,34,"VerticalHorizontal_-33.000_0.13460",-33,"Congruent","1",0.1346,"right",1,"368"
"S002","Illusion_Session2",NA,18.8217,"1517x721",1.093757,59.96,"chrome","107.0.0","Windows 10","VerticalHorizontal",2,35,"VerticalHorizontal_24.51429_-0.08717",24.51429,"Incongruent","-1",0.08717,"right",0,"493"
"S002","Illusion_Session2",NA,18.8217,"1517x721",1.093757,59.96,"chrome","107.0.0","Windows 10","VerticalHorizontal",2,36,"VerticalHorizontal_33.0000_-0.1346",33,"Incongruent","-1",0.1346,"right",0,"521"
"S002","Illusion_Session2",NA,18.8217,"1517x721",1.093757,59.96,"chrome","107.0.0","Windows 10","VerticalHorizontal",2,37,"VerticalHorizontal_-16.02857_0.05000",-16.02857,"Congruent","1",0.05,"right",1,"456"
"S002","Illusion_Session2",NA,18.8217,"1517x721",1.093757,59.96,"chrome","107.0.0","Windows 10","VerticalHorizontal",2,38,"VerticalHorizontal_-24.51429_0.05000",-24.51429,"Congruent","1",0.05,"right",1,"335"
"S002","Illusion_Session2",NA,18.8217,"1517x721",1.093757,59.96,"chrome","107.0.0","Windows 10","VerticalHorizontal",2,39,"VerticalHorizontal_16.02857_0.13460",16.02857,"Incongruent","1",0.1346,"left",0,"296"
"S002","Illusion_Session2",NA,18.8217,"1517x721",1.093757,59.96,"chrome","107.0.0","Windows 10","VerticalHorizontal",2,40,"VerticalHorizontal_-24.51429_0.19230",-24.51429,"Congruent","1",0.1923,"right",1,"40"
"S002","Illusion_Session2",NA,18.8217,"1517x721",1.093757,59.96,"chrome","107.0.0","Windows 10","VerticalHorizontal",2,41,"VerticalHorizontal_-7.54286_-0.1923",-7.54286,"Congruent","-1",0.1923,"left",1,"518"
"S002","Illusion_Session2",NA,18.8217,"1517x721",1.093757,59.96,"chrome","107.0.0","Windows 10","VerticalHorizontal",2,42,"VerticalHorizontal_-33.000_0.08717",-33,"Congruent","1",0.08717,"right",1,"492"
"S002","Illusion_Session2",NA,18.8217,"1517x721",1.093757,59.96,"chrome","107.0.0","Windows 10","VerticalHorizontal",2,43,"VerticalHorizontal_-33.000_-0.08717",-33,"Congruent","-1",0.08717,"right",0,"604"
"S002","Illusion_Session2",NA,18.8217,"1517x721",1.093757,59.96,"chrome","107.0.0","Windows 10","VerticalHorizontal",2,44,"VerticalHorizontal_-33.000_-0.1923",-33,"Congruent","-1",0.1923,"right",0,"652"
"S002","Illusion_Session2",NA,18.8217,"1517x721",1.093757,59.96,"chrome","107.0.0","Windows 10","VerticalHorizontal",2,45,"VerticalHorizontal_-33.000_-0.0500",-33,"Congruent","-1",0.05,"right",0,"378"
"S002","Illusion_Session2",NA,18.8217,"1517x721",1.093757,59.96,"chrome","107.0.0","Windows 10","VerticalHorizontal",2,46,"VerticalHorizontal_16.02857_-0.1923",16.02857,"Incongruent","-1",0.1923,"right",0,"539"
"S002","Illusion_Session2",NA,18.8217,"1517x721",1.093757,59.96,"chrome","107.0.0","Windows 10","VerticalHorizontal",2,47,"VerticalHorizontal_24.51429_0.19230",24.51429,"Incongruent","1",0.1923,"right",1,"357"
"S002","Illusion_Session2",NA,18.8217,"1517x721",1.093757,59.96,"chrome","107.0.0","Windows 10","VerticalHorizontal",2,48,"VerticalHorizontal_16.02857_0.19230",16.02857,"Incongruent","1",0.1923,"right",1,"317"
"S002","Illusion_Session2",NA,18.8217,"1517x721",1.093757,59.96,"chrome","107.0.0","Windows 10","VerticalHorizontal",2,49,"VerticalHorizontal_-33.000_0.05000",-33,"Congruent","1",0.05,"right",1,"758"
"S002","Illusion_Session2",NA,18.8217,"1517x721",1.093757,59.96,"chrome","107.0.0","Windows 10","VerticalHorizontal",2,50,"VerticalHorizontal_-24.51429_-0.0500",-24.51429,"Congruent","-1",0.05,"right",0,"406"
"S002","Illusion_Session2",NA,18.8217,"1517x721",1.093757,59.96,"chrome","107.0.0","Windows 10","VerticalHorizontal",2,51,"VerticalHorizontal_-7.54286_-0.1346",-7.54286,"Congruent","-1",0.1346,"right",0,"1695"
"S002","Illusion_Session2",NA,18.8217,"1517x721",1.093757,59.96,"chrome","107.0.0","Windows 10","VerticalHorizontal",2,52,"VerticalHorizontal_33.0000_0.05000",33,"Incongruent","1",0.05,"right",1,"1277"
"S002","Illusion_Session2",NA,18.8217,"1517x721",1.093757,59.96,"chrome","107.0.0","Windows 10","VerticalHorizontal",2,53,"VerticalHorizontal_-7.54286_0.13460",-7.54286,"Congruent","1",0.1346,"right",1,"2030"
"S002","Illusion_Session2",NA,18.8217,"1517x721",1.093757,59.96,"chrome","107.0.0","Windows 10","VerticalHorizontal",2,54,"VerticalHorizontal_7.54286_0.08717",7.54286,"Incongruent","1",0.08717,"right",1,"549"
"S002","Illusion_Session2",NA,18.8217,"1517x721",1.093757,59.96,"chrome","107.0.0","Windows 10","VerticalHorizontal",2,55,"VerticalHorizontal_33.0000_0.13460",33,"Incongruent","1",0.1346,"right",1,"555"
"S002","Illusion_Session2",NA,18.8217,"1517x721",1.093757,59.96,"chrome","107.0.0","Windows 10","VerticalHorizontal",2,56,"VerticalHorizontal_7.54286_-0.1923",7.54286,"Incongruent","-1",0.1923,"right",0,"714"
"S002","Illusion_Session2",NA,18.8217,"1517x721",1.093757,59.96,"chrome","107.0.0","Windows 10","VerticalHorizontal",2,57,"VerticalHorizontal_33.0000_0.08717",33,"Incongruent","1",0.08717,"left",0,"478"
"S002","Illusion_Session2",NA,18.8217,"1517x721",1.093757,59.96,"chrome","107.0.0","Windows 10","VerticalHorizontal",2,58,"VerticalHorizontal_-24.51429_-0.08717",-24.51429,"Congruent","-1",0.08717,"left",1,"336"
"S002","Illusion_Session2",NA,18.8217,"1517x721",1.093757,59.96,"chrome","107.0.0","Windows 10","VerticalHorizontal",2,59,"VerticalHorizontal_7.54286_-0.1346",7.54286,"Incongruent","-1",0.1346,"left",1,"855"
"S002","Illusion_Session2",NA,18.8217,"1517x721",1.093757,59.96,"chrome","107.0.0","Windows 10","VerticalHorizontal",2,60,"VerticalHorizontal_-7.54286_-0.0500",-7.54286,"Congruent","-1",0.05,"left",1,"538"
"S002","Illusion_Session2",NA,18.8217,"1517x721",1.093757,59.96,"chrome","107.0.0","Windows 10","VerticalHorizontal",2,61,"VerticalHorizontal_-16.02857_0.08717",-16.02857,"Congruent","1",0.08717,"right",1,"913"
"S002","Illusion_Session2",NA,18.8217,"1517x721",1.093757,59.96,"chrome","107.0.0","Windows 10","VerticalHorizontal",2,62,"VerticalHorizontal_16.02857_-0.0500",16.02857,"Incongruent","-1",0.05,"left",1,"307"
"S002","Illusion_Session2",NA,18.8217,"1517x721",1.093757,59.96,"chrome","107.0.0","Windows 10","VerticalHorizontal",2,63,"VerticalHorizontal_-24.51429_-0.1923",-24.51429,"Congruent","-1",0.1923,"right",0,"846"
"S002","Illusion_Session2",NA,18.8217,"1517x721",1.093757,59.96,"chrome","107.0.0","Windows 10","VerticalHorizontal",2,64,"VerticalHorizontal_-33.000_0.19230",-33,"Congruent","1",0.1923,"right",1,"137"
"S002","Illusion_Session2",NA,18.8217,"1517x721",1.093757,59.96,"chrome","107.0.0","Windows 10","Ebbinghaus",2,1,"Ebbinghaus_-1.0000_-0.13357",-1,"Congruent","-1",0.13357,"left",1,"887"
"S002","Illusion_Session2",NA,18.8217,"1517x721",1.093757,59.96,"chrome","107.0.0","Windows 10","Ebbinghaus",2,2,"Ebbinghaus_-0.48571_0.18571",-0.48571,"Congruent","1",0.18571,"right",1,"986"
"S002","Illusion_Session2",NA,18.8217,"1517x721",1.093757,59.96,"chrome","107.0.0","Windows 10","Ebbinghaus",2,3,"Ebbinghaus_1.00000_-0.18571",1,"Incongruent","-1",0.18571,"right",0,"548"
"S002","Illusion_Session2",NA,18.8217,"1517x721",1.093757,59.96,"chrome","107.0.0","Windows 10","Ebbinghaus",2,4,"Ebbinghaus_0.74286_0.09000",0.74286,"Incongruent","1",0.09,"left",0,"763"
"S002","Illusion_Session2",NA,18.8217,"1517x721",1.093757,59.96,"chrome","107.0.0","Windows 10","Ebbinghaus",2,5,"Ebbinghaus_-0.48571_0.09000",-0.48571,"Congruent","1",0.09,"right",1,"760"
"S002","Illusion_Session2",NA,18.8217,"1517x721",1.093757,59.96,"chrome","107.0.0","Windows 10","Ebbinghaus",2,6,"Ebbinghaus_-1.0000_-0.0900",-1,"Congruent","-1",0.09,"left",1,"1081"
"S002","Illusion_Session2",NA,18.8217,"1517x721",1.093757,59.96,"chrome","107.0.0","Windows 10","Ebbinghaus",2,7,"Ebbinghaus_0.48571_-0.0900",0.48571,"Incongruent","-1",0.09,"right",0,"1246"
"S002","Illusion_Session2",NA,18.8217,"1517x721",1.093757,59.96,"chrome","107.0.0","Windows 10","Ebbinghaus",2,8,"Ebbinghaus_-0.22857_0.13357",-0.22857,"Congruent","1",0.13357,"right",1,"943"
"S002","Illusion_Session2",NA,18.8217,"1517x721",1.093757,59.96,"chrome","107.0.0","Windows 10","Ebbinghaus",2,9,"Ebbinghaus_-0.22857_0.24643",-0.22857,"Congruent","1",0.24643,"left",0,"686"
"S002","Illusion_Session2",NA,18.8217,"1517x721",1.093757,59.96,"chrome","107.0.0","Windows 10","Ebbinghaus",2,10,"Ebbinghaus_-0.48571_-0.13357",-0.48571,"Congruent","-1",0.13357,"left",1,"772"
"S002","Illusion_Session2",NA,18.8217,"1517x721",1.093757,59.96,"chrome","107.0.0","Windows 10","Ebbinghaus",2,11,"Ebbinghaus_0.48571_-0.18571",0.48571,"Incongruent","-1",0.18571,"right",0,"1040"
"S002","Illusion_Session2",NA,18.8217,"1517x721",1.093757,59.96,"chrome","107.0.0","Windows 10","Ebbinghaus",2,12,"Ebbinghaus_1.00000_-0.0900",1,"Incongruent","-1",0.09,"right",0,"264"
"S002","Illusion_Session2",NA,18.8217,"1517x721",1.093757,59.96,"chrome","107.0.0","Windows 10","Ebbinghaus",2,13,"Ebbinghaus_-1.0000_0.24643",-1,"Congruent","1",0.24643,"right",1,"442"
"S002","Illusion_Session2",NA,18.8217,"1517x721",1.093757,59.96,"chrome","107.0.0","Windows 10","Ebbinghaus",2,14,"Ebbinghaus_0.22857_0.09000",0.22857,"Incongruent","1",0.09,"left",0,"839"
"S002","Illusion_Session2",NA,18.8217,"1517x721",1.093757,59.96,"chrome","107.0.0","Windows 10","Ebbinghaus",2,15,"Ebbinghaus_-0.22857_-0.0900",-0.22857,"Congruent","-1",0.09,"left",1,"574"
"S002","Illusion_Session2",NA,18.8217,"1517x721",1.093757,59.96,"chrome","107.0.0","Windows 10","Ebbinghaus",2,16,"Ebbinghaus_-0.74286_0.18571",-0.74286,"Congruent","1",0.18571,"right",1,"659"
"S002","Illusion_Session2",NA,18.8217,"1517x721",1.093757,59.96,"chrome","107.0.0","Windows 10","Ebbinghaus",2,17,"Ebbinghaus_0.74286_0.13357",0.74286,"Incongruent","1",0.13357,"left",0,"1917"
"S002","Illusion_Session2",NA,18.8217,"1517x721",1.093757,59.96,"chrome","107.0.0","Windows 10","Ebbinghaus",2,18,"Ebbinghaus_-1.0000_0.18571",-1,"Congruent","1",0.18571,"right",1,"596"
"S002","Illusion_Session2",NA,18.8217,"1517x721",1.093757,59.96,"chrome","107.0.0","Windows 10","Ebbinghaus",2,19,"Ebbinghaus_-0.74286_0.13357",-0.74286,"Congruent","1",0.13357,"right",1,"1018"
"S002","Illusion_Session2",NA,18.8217,"1517x721",1.093757,59.96,"chrome","107.0.0","Windows 10","Ebbinghaus",2,20,"Ebbinghaus_0.22857_0.13357",0.22857,"Incongruent","1",0.13357,"left",0,"711"
"S002","Illusion_Session2",NA,18.8217,"1517x721",1.093757,59.96,"chrome","107.0.0","Windows 10","Ebbinghaus",2,21,"Ebbinghaus_-0.48571_0.24643",-0.48571,"Congruent","1",0.24643,"right",1,"987"
"S002","Illusion_Session2",NA,18.8217,"1517x721",1.093757,59.96,"chrome","107.0.0","Windows 10","Ebbinghaus",2,22,"Ebbinghaus_-0.74286_-0.18571",-0.74286,"Congruent","-1",0.18571,"right",0,"1212"
"S002","Illusion_Session2",NA,18.8217,"1517x721",1.093757,59.96,"chrome","107.0.0","Windows 10","Ebbinghaus",2,23,"Ebbinghaus_0.74286_-0.0900",0.74286,"Incongruent","-1",0.09,"right",0,"602"
"S002","Illusion_Session2",NA,18.8217,"1517x721",1.093757,59.96,"chrome","107.0.0","Windows 10","Ebbinghaus",2,24,"Ebbinghaus_-0.74286_-0.0900",-0.74286,"Congruent","-1",0.09,"right",0,"1325"
"S002","Illusion_Session2",NA,18.8217,"1517x721",1.093757,59.96,"chrome","107.0.0","Windows 10","Ebbinghaus",2,25,"Ebbinghaus_1.00000_0.09000",1,"Incongruent","1",0.09,"left",0,"464"
"S002","Illusion_Session2",NA,18.8217,"1517x721",1.093757,59.96,"chrome","107.0.0","Windows 10","Ebbinghaus",2,26,"Ebbinghaus_1.00000_-0.13357",1,"Incongruent","-1",0.13357,"right",0,"486"
"S002","Illusion_Session2",NA,18.8217,"1517x721",1.093757,59.96,"chrome","107.0.0","Windows 10","Ebbinghaus",2,27,"Ebbinghaus_0.22857_0.18571",0.22857,"Incongruent","1",0.18571,"left",0,"979"
"S002","Illusion_Session2",NA,18.8217,"1517x721",1.093757,59.96,"chrome","107.0.0","Windows 10","Ebbinghaus",2,28,"Ebbinghaus_-0.74286_-0.13357",-0.74286,"Congruent","-1",0.13357,"left",1,"1056"
"S002","Illusion_Session2",NA,18.8217,"1517x721",1.093757,59.96,"chrome","107.0.0","Windows 10","Ebbinghaus",2,29,"Ebbinghaus_0.48571_-0.13357",0.48571,"Incongruent","-1",0.13357,"right",0,"967"
"S002","Illusion_Session2",NA,18.8217,"1517x721",1.093757,59.96,"chrome","107.0.0","Windows 10","Ebbinghaus",2,30,"Ebbinghaus_-0.22857_0.18571",-0.22857,"Congruent","1",0.18571,"right",1,"396"
"S002","Illusion_Session2",NA,18.8217,"1517x721",1.093757,59.96,"chrome","107.0.0","Windows 10","Ebbinghaus",2,31,"Ebbinghaus_0.74286_0.18571",0.74286,"Incongruent","1",0.18571,"left",0,"536"
"S002","Illusion_Session2",NA,18.8217,"1517x721",1.093757,59.96,"chrome","107.0.0","Windows 10","Ebbinghaus",2,32,"Ebbinghaus_-0.48571_0.13357",-0.48571,"Congruent","1",0.13357,"right",1,"480"
"S002","Illusion_Session2",NA,18.8217,"1517x721",1.093757,59.96,"chrome","107.0.0","Windows 10","Ebbinghaus",2,33,"Ebbinghaus_-0.22857_-0.24643",-0.22857,"Congruent","-1",0.24643,"left",1,"740"
"S002","Illusion_Session2",NA,18.8217,"1517x721",1.093757,59.96,"chrome","107.0.0","Windows 10","Ebbinghaus",2,34,"Ebbinghaus_-1.0000_0.13357",-1,"Congruent","1",0.13357,"right",1,"565"
"S002","Illusion_Session2",NA,18.8217,"1517x721",1.093757,59.96,"chrome","107.0.0","Windows 10","Ebbinghaus",2,35,"Ebbinghaus_-0.48571_-0.24643",-0.48571,"Congruent","-1",0.24643,"left",1,"557"
"S002","Illusion_Session2",NA,18.8217,"1517x721",1.093757,59.96,"chrome","107.0.0","Windows 10","Ebbinghaus",2,36,"Ebbinghaus_-0.74286_-0.24643",-0.74286,"Congruent","-1",0.24643,"left",1,"698"
"S002","Illusion_Session2",NA,18.8217,"1517x721",1.093757,59.96,"chrome","107.0.0","Windows 10","Ebbinghaus",2,37,"Ebbinghaus_0.74286_0.24643",0.74286,"Incongruent","1",0.24643,"left",0,"526"
"S002","Illusion_Session2",NA,18.8217,"1517x721",1.093757,59.96,"chrome","107.0.0","Windows 10","Ebbinghaus",2,38,"Ebbinghaus_1.00000_0.18571",1,"Incongruent","1",0.18571,"left",0,"687"
"S002","Illusion_Session2",NA,18.8217,"1517x721",1.093757,59.96,"chrome","107.0.0","Windows 10","Ebbinghaus",2,39,"Ebbinghaus_-0.22857_-0.13357",-0.22857,"Congruent","-1",0.13357,"left",1,"775"
"S002","Illusion_Session2",NA,18.8217,"1517x721",1.093757,59.96,"chrome","107.0.0","Windows 10","Ebbinghaus",2,40,"Ebbinghaus_-1.0000_-0.18571",-1,"Congruent","-1",0.18571,"left",1,"489"
"S002","Illusion_Session2",NA,18.8217,"1517x721",1.093757,59.96,"chrome","107.0.0","Windows 10","Ebbinghaus",2,41,"Ebbinghaus_0.22857_-0.13357",0.22857,"Incongruent","-1",0.13357,"right",0,"1265"
"S002","Illusion_Session2",NA,18.8217,"1517x721",1.093757,59.96,"chrome","107.0.0","Windows 10","Ebbinghaus",2,42,"Ebbinghaus_-0.74286_0.24643",-0.74286,"Congruent","1",0.24643,"right",1,"940"
"S002","Illusion_Session2",NA,18.8217,"1517x721",1.093757,59.96,"chrome","107.0.0","Windows 10","Ebbinghaus",2,43,"Ebbinghaus_-1.0000_0.09000",-1,"Congruent","1",0.09,"right",1,"724"
"S002","Illusion_Session2",NA,18.8217,"1517x721",1.093757,59.96,"chrome","107.0.0","Windows 10","Ebbinghaus",2,44,"Ebbinghaus_0.48571_-0.24643",0.48571,"Incongruent","-1",0.24643,"right",0,"360"
"S002","Illusion_Session2",NA,18.8217,"1517x721",1.093757,59.96,"chrome","107.0.0","Windows 10","Ebbinghaus",2,45,"Ebbinghaus_-0.74286_0.09000",-0.74286,"Congruent","1",0.09,"right",1,"490"
"S002","Illusion_Session2",NA,18.8217,"1517x721",1.093757,59.96,"chrome","107.0.0","Windows 10","Ebbinghaus",2,46,"Ebbinghaus_-0.48571_-0.18571",-0.48571,"Congruent","-1",0.18571,"left",1,"609"
"S002","Illusion_Session2",NA,18.8217,"1517x721",1.093757,59.96,"chrome","107.0.0","Windows 10","Ebbinghaus",2,47,"Ebbinghaus_1.00000_-0.24643",1,"Incongruent","-1",0.24643,"right",0,"616"
"S002","Illusion_Session2",NA,18.8217,"1517x721",1.093757,59.96,"chrome","107.0.0","Windows 10","Ebbinghaus",2,48,"Ebbinghaus_0.48571_0.18571",0.48571,"Incongruent","1",0.18571,"left",0,"569"
"S002","Illusion_Session2",NA,18.8217,"1517x721",1.093757,59.96,"chrome","107.0.0","Windows 10","Ebbinghaus",2,49,"Ebbinghaus_-0.22857_0.09000",-0.22857,"Congruent","1",0.09,"right",1,"620"
"S002","Illusion_Session2",NA,18.8217,"1517x721",1.093757,59.96,"chrome","107.0.0","Windows 10","Ebbinghaus",2,50,"Ebbinghaus_0.22857_-0.24643",0.22857,"Incongruent","-1",0.24643,"right",0,"600"
"S002","Illusion_Session2",NA,18.8217,"1517x721",1.093757,59.96,"chrome","107.0.0","Windows 10","Ebbinghaus",2,51,"Ebbinghaus_0.22857_-0.18571",0.22857,"Incongruent","-1",0.18571,"right",0,"621"
"S002","Illusion_Session2",NA,18.8217,"1517x721",1.093757,59.96,"chrome","107.0.0","Windows 10","Ebbinghaus",2,52,"Ebbinghaus_-0.48571_-0.0900",-0.48571,"Congruent","-1",0.09,"left",1,"866"
"S002","Illusion_Session2",NA,18.8217,"1517x721",1.093757,59.96,"chrome","107.0.0","Windows 10","Ebbinghaus",2,53,"Ebbinghaus_-1.0000_-0.24643",-1,"Congruent","-1",0.24643,"left",1,"684"
"S002","Illusion_Session2",NA,18.8217,"1517x721",1.093757,59.96,"chrome","107.0.0","Windows 10","Ebbinghaus",2,54,"Ebbinghaus_0.48571_0.24643",0.48571,"Incongruent","1",0.24643,"left",0,"780"
"S002","Illusion_Session2",NA,18.8217,"1517x721",1.093757,59.96,"chrome","107.0.0","Windows 10","Ebbinghaus",2,55,"Ebbinghaus_1.00000_0.13357",1,"Incongruent","1",0.13357,"left",0,"540"
"S002","Illusion_Session2",NA,18.8217,"1517x721",1.093757,59.96,"chrome","107.0.0","Windows 10","Ebbinghaus",2,56,"Ebbinghaus_0.48571_0.09000",0.48571,"Incongruent","1",0.09,"left",0,"812"
"S002","Illusion_Session2",NA,18.8217,"1517x721",1.093757,59.96,"chrome","107.0.0","Windows 10","Ebbinghaus",2,57,"Ebbinghaus_0.74286_-0.18571",0.74286,"Incongruent","-1",0.18571,"right",0,"610"
"S002","Illusion_Session2",NA,18.8217,"1517x721",1.093757,59.96,"chrome","107.0.0","Windows 10","Ebbinghaus",2,58,"Ebbinghaus_0.22857_-0.0900",0.22857,"Incongruent","-1",0.09,"right",0,"511"
"S002","Illusion_Session2",NA,18.8217,"1517x721",1.093757,59.96,"chrome","107.0.0","Windows 10","Ebbinghaus",2,59,"Ebbinghaus_-0.22857_-0.18571",-0.22857,"Congruent","-1",0.18571,"right",0,"1241"
"S002","Illusion_Session2",NA,18.8217,"1517x721",1.093757,59.96,"chrome","107.0.0","Windows 10","Ebbinghaus",2,60,"Ebbinghaus_0.22857_0.24643",0.22857,"Incongruent","1",0.24643,"right",1,"467"
"S002","Illusion_Session2",NA,18.8217,"1517x721",1.093757,59.96,"chrome","107.0.0","Windows 10","Ebbinghaus",2,61,"Ebbinghaus_1.00000_0.24643",1,"Incongruent","1",0.24643,"left",0,"493"
"S002","Illusion_Session2",NA,18.8217,"1517x721",1.093757,59.96,"chrome","107.0.0","Windows 10","Ebbinghaus",2,62,"Ebbinghaus_0.48571_0.13357",0.48571,"Incongruent","1",0.13357,"left",0,"853"
"S002","Illusion_Session2",NA,18.8217,"1517x721",1.093757,59.96,"chrome","107.0.0","Windows 10","Ebbinghaus",2,63,"Ebbinghaus_0.74286_-0.24643",0.74286,"Incongruent","-1",0.24643,"right",0,"730"
"S002","Illusion_Session2",NA,18.8217,"1517x721",1.093757,59.96,"chrome","107.0.0","Windows 10","Ebbinghaus",2,64,"Ebbinghaus_0.74286_-0.13357",0.74286,"Incongruent","-1",0.13357,"right",0,"567"
