"Participant","Task","Task_Order","Duration","Screen_Resolution","Screen_Size","Screen_Refresh","Browser","Browser_Version","Device_OS","Illusion_Type","Block","Trial","Stimulus","Illusion_Strength","Illusion_Effect","Illusion_Side","Illusion_Difference","Answer","Error","RT"
"S003","Illusion_Session1",1,27.4175166666667,"1920x937",1.79904,60,"chrome","107.0.0","Windows 10","MullerLyer",1,19,"MullerLyer_2.30000_0.35000",2.3,"Incongruent","1",0.35,"up",0,"812"
"S003","Illusion_Session1",1,27.4175166666667,"1920x937",1.79904,60,"chrome","107.0.0","Windows 10","MullerLyer",1,20,"MullerLyer_20.04286_-0.23665",20.04286,"Incongruent","-1",0.23665,"up",1,"960"
"S003","Illusion_Session1",1,27.4175166666667,"1920x937",1.79904,60,"chrome","107.0.0","Windows 10","MullerLyer",1,21,"MullerLyer_8.21429_0.35000",8.21429,"Incongruent","1",0.35,"up",0,"1006"
"S003","Illusion_Session1",1,27.4175166666667,"1920x937",1.79904,60,"chrome","107.0.0","Windows 10","MullerLyer",1,22,"MullerLyer_8.21429_-0.14541",8.21429,"Incongruent","-1",0.14541,"down",0,"2048"
"S003","Illusion_Session1",1,27.4175166666667,"1920x937",1.79904,60,"chrome","107.0.0","Windows 10","MullerLyer",1,23,"MullerLyer_14.12857_0.07627",14.12857,"Incongruent","1",0.07627,"down",1,"730"
"S003","Illusion_Session1",1,27.4175166666667,"1920x937",1.79904,60,"chrome","107.0.0","Windows 10","MullerLyer",1,24,"MullerLyer_-20.04286_-0.3500",-20.04286,"Congruent","-1",0.35,"down",0,"594"
"S003","Illusion_Session1",1,27.4175166666667,"1920x937",1.79904,60,"chrome","107.0.0","Windows 10","MullerLyer",1,25,"MullerLyer_-14.12857_-0.14541",-14.12857,"Congruent","-1",0.14541,"down",0,"570"
"S003","Illusion_Session1",1,27.4175166666667,"1920x937",1.79904,60,"chrome","107.0.0","Windows 10","MullerLyer",1,26,"MullerLyer_-14.12857_-0.23665",-14.12857,"Congruent","-1",0.23665,"down",0,"468"
"S003","Illusion_Session1",1,27.4175166666667,"1920x937",1.79904,60,"chrome","107.0.0","Windows 10","MullerLyer",1,27,"MullerLyer_14.12857_0.35000",14.12857,"Incongruent","1",0.35,"up",0,"604"
"S003","Illusion_Session1",1,27.4175166666667,"1920x937",1.79904,60,"chrome","107.0.0","Windows 10","MullerLyer",1,28,"MullerLyer_-8.21429_-0.07627",-8.21429,"Congruent","-1",0.07627,"down",0,"627"
"S003","Illusion_Session1",1,27.4175166666667,"1920x937",1.79904,60,"chrome","107.0.0","Windows 10","MullerLyer",1,29,"MullerLyer_-20.04286_-0.14541",-20.04286,"Congruent","-1",0.14541,"down",0,"552"
"S003","Illusion_Session1",1,27.4175166666667,"1920x937",1.79904,60,"chrome","107.0.0","Windows 10","MullerLyer",1,30,"MullerLyer_-20.04286_0.23665",-20.04286,"Congruent","1",0.23665,"up",0,"576"
"S003","Illusion_Session1",1,27.4175166666667,"1920x937",1.79904,60,"chrome","107.0.0","Windows 10","MullerLyer",1,31,"MullerLyer_2.30000_0.23665",2.3,"Incongruent","1",0.23665,"up",0,"886"
"S003","Illusion_Session1",1,27.4175166666667,"1920x937",1.79904,60,"chrome","107.0.0","Windows 10","MullerLyer",1,32,"MullerLyer_-20.04286_-0.07627",-20.04286,"Congruent","-1",0.07627,"down",0,"575"
"S003","Illusion_Session1",1,27.4175166666667,"1920x937",1.79904,60,"chrome","107.0.0","Windows 10","MullerLyer",1,33,"MullerLyer_-2.3000_-0.3500",-2.3,"Congruent","-1",0.35,"down",0,"644"
"S003","Illusion_Session1",1,27.4175166666667,"1920x937",1.79904,60,"chrome","107.0.0","Windows 10","MullerLyer",1,34,"MullerLyer_-14.12857_-0.07627",-14.12857,"Congruent","-1",0.07627,"down",0,"595"
"S003","Illusion_Session1",1,27.4175166666667,"1920x937",1.79904,60,"chrome","107.0.0","Windows 10","MullerLyer",1,35,"MullerLyer_-8.21429_-0.23665",-8.21429,"Congruent","-1",0.23665,"down",0,"528"
"S003","Illusion_Session1",1,27.4175166666667,"1920x937",1.79904,60,"chrome","107.0.0","Windows 10","MullerLyer",1,36,"MullerLyer_20.04286_0.35000",20.04286,"Incongruent","1",0.35,"up",0,"870"
"S003","Illusion_Session1",1,27.4175166666667,"1920x937",1.79904,60,"chrome","107.0.0","Windows 10","MullerLyer",1,37,"MullerLyer_8.21429_0.07627",8.21429,"Incongruent","1",0.07627,"up",0,"3162"
"S003","Illusion_Session1",1,27.4175166666667,"1920x937",1.79904,60,"chrome","107.0.0","Windows 10","MullerLyer",1,38,"MullerLyer_14.12857_-0.14541",14.12857,"Incongruent","-1",0.14541,"up",1,"849"
"S003","Illusion_Session1",1,27.4175166666667,"1920x937",1.79904,60,"chrome","107.0.0","Windows 10","MullerLyer",1,39,"MullerLyer_14.12857_-0.23665",14.12857,"Incongruent","-1",0.23665,"down",0,"1059"
"S003","Illusion_Session1",1,27.4175166666667,"1920x937",1.79904,60,"chrome","107.0.0","Windows 10","MullerLyer",1,40,"MullerLyer_2.30000_-0.23665",2.3,"Incongruent","-1",0.23665,"down",0,"1187"
"S003","Illusion_Session1",1,27.4175166666667,"1920x937",1.79904,60,"chrome","107.0.0","Windows 10","MullerLyer",1,41,"MullerLyer_-2.3000_-0.14541",-2.3,"Congruent","-1",0.14541,"down",0,"738"
"S003","Illusion_Session1",1,27.4175166666667,"1920x937",1.79904,60,"chrome","107.0.0","Windows 10","MullerLyer",1,42,"MullerLyer_14.12857_-0.3500",14.12857,"Incongruent","-1",0.35,"down",0,"829"
"S003","Illusion_Session1",1,27.4175166666667,"1920x937",1.79904,60,"chrome","107.0.0","Windows 10","MullerLyer",1,43,"MullerLyer_-2.3000_0.23665",-2.3,"Congruent","1",0.23665,"up",0,"756"
"S003","Illusion_Session1",1,27.4175166666667,"1920x937",1.79904,60,"chrome","107.0.0","Windows 10","MullerLyer",1,44,"MullerLyer_-8.21429_0.14541",-8.21429,"Congruent","1",0.14541,"up",0,"1282"
"S003","Illusion_Session1",1,27.4175166666667,"1920x937",1.79904,60,"chrome","107.0.0","Windows 10","MullerLyer",1,45,"MullerLyer_2.30000_-0.07627",2.3,"Incongruent","-1",0.07627,"down",0,"1066"
"S003","Illusion_Session1",1,27.4175166666667,"1920x937",1.79904,60,"chrome","107.0.0","Windows 10","MullerLyer",1,46,"MullerLyer_8.21429_0.23665",8.21429,"Incongruent","1",0.23665,"up",0,"2051"
"S003","Illusion_Session1",1,27.4175166666667,"1920x937",1.79904,60,"chrome","107.0.0","Windows 10","MullerLyer",1,47,"MullerLyer_-20.04286_0.07627",-20.04286,"Congruent","1",0.07627,"up",0,"1096"
"S003","Illusion_Session1",1,27.4175166666667,"1920x937",1.79904,60,"chrome","107.0.0","Windows 10","MullerLyer",1,48,"MullerLyer_20.04286_0.23665",20.04286,"Incongruent","1",0.23665,"down",1,"612"
"S003","Illusion_Session1",1,27.4175166666667,"1920x937",1.79904,60,"chrome","107.0.0","Windows 10","MullerLyer",1,49,"MullerLyer_14.12857_0.14541",14.12857,"Incongruent","1",0.14541,"down",1,"1112"
"S003","Illusion_Session1",1,27.4175166666667,"1920x937",1.79904,60,"chrome","107.0.0","Windows 10","MullerLyer",1,50,"MullerLyer_20.04286_0.07627",20.04286,"Incongruent","1",0.07627,"down",1,"646"
"S003","Illusion_Session1",1,27.4175166666667,"1920x937",1.79904,60,"chrome","107.0.0","Windows 10","MullerLyer",1,51,"MullerLyer_-14.12857_-0.3500",-14.12857,"Congruent","-1",0.35,"down",0,"522"
"S003","Illusion_Session1",1,27.4175166666667,"1920x937",1.79904,60,"chrome","107.0.0","Windows 10","MullerLyer",1,52,"MullerLyer_-2.3000_0.35000",-2.3,"Congruent","1",0.35,"up",0,"834"
"S003","Illusion_Session1",1,27.4175166666667,"1920x937",1.79904,60,"chrome","107.0.0","Windows 10","MullerLyer",1,53,"MullerLyer_8.21429_-0.07627",8.21429,"Incongruent","-1",0.07627,"down",0,"2113"
"S003","Illusion_Session1",1,27.4175166666667,"1920x937",1.79904,60,"chrome","107.0.0","Windows 10","MullerLyer",1,54,"MullerLyer_20.04286_-0.3500",20.04286,"Incongruent","-1",0.35,"down",0,"755"
"S003","Illusion_Session1",1,27.4175166666667,"1920x937",1.79904,60,"chrome","107.0.0","Windows 10","MullerLyer",1,55,"MullerLyer_-2.3000_0.14541",-2.3,"Congruent","1",0.14541,"up",0,"638"
"S003","Illusion_Session1",1,27.4175166666667,"1920x937",1.79904,60,"chrome","107.0.0","Windows 10","MullerLyer",1,56,"MullerLyer_8.21429_-0.23665",8.21429,"Incongruent","-1",0.23665,"down",0,"609"
"S003","Illusion_Session1",1,27.4175166666667,"1920x937",1.79904,60,"chrome","107.0.0","Windows 10","MullerLyer",1,57,"MullerLyer_-20.04286_0.14541",-20.04286,"Congruent","1",0.14541,"up",0,"621"
"S003","Illusion_Session1",1,27.4175166666667,"1920x937",1.79904,60,"chrome","107.0.0","Windows 10","MullerLyer",1,58,"MullerLyer_2.30000_-0.3500",2.3,"Incongruent","-1",0.35,"down",0,"647"
"S003","Illusion_Session1",1,27.4175166666667,"1920x937",1.79904,60,"chrome","107.0.0","Windows 10","MullerLyer",1,59,"MullerLyer_14.12857_0.23665",14.12857,"Incongruent","1",0.23665,"up",0,"644"
"S003","Illusion_Session1",1,27.4175166666667,"1920x937",1.79904,60,"chrome","107.0.0","Windows 10","MullerLyer",1,60,"MullerLyer_-8.21429_-0.3500",-8.21429,"Congruent","-1",0.35,"down",0,"575"
"S003","Illusion_Session1",1,27.4175166666667,"1920x937",1.79904,60,"chrome","107.0.0","Windows 10","MullerLyer",1,61,"MullerLyer_-2.3000_-0.07627",-2.3,"Congruent","-1",0.07627,"up",1,"692"
"S003","Illusion_Session1",1,27.4175166666667,"1920x937",1.79904,60,"chrome","107.0.0","Windows 10","MullerLyer",1,62,"MullerLyer_-2.3000_-0.23665",-2.3,"Congruent","-1",0.23665,"down",0,"1151"
"S003","Illusion_Session1",1,27.4175166666667,"1920x937",1.79904,60,"chrome","107.0.0","Windows 10","MullerLyer",1,63,"MullerLyer_-8.21429_0.23665",-8.21429,"Congruent","1",0.23665,"up",0,"753"
"S003","Illusion_Session1",1,27.4175166666667,"1920x937",1.79904,60,"chrome","107.0.0","Windows 10","MullerLyer",1,64,"MullerLyer_-20.04286_-0.23665",-20.04286,"Congruent","-1",0.23665,"down",0,"764"
"S003","Illusion_Session1",1,27.4175166666667,"1920x937",1.79904,60,"chrome","107.0.0","Windows 10","MullerLyer",1,65,"MullerLyer_8.21429_0.14541",8.21429,"Incongruent","1",0.14541,"up",0,"1260"
"S003","Illusion_Session1",1,27.4175166666667,"1920x937",1.79904,60,"chrome","107.0.0","Windows 10","MullerLyer",1,66,"MullerLyer_2.30000_0.14541",2.3,"Incongruent","1",0.14541,"up",0,"1777"
"S003","Illusion_Session1",1,27.4175166666667,"1920x937",1.79904,60,"chrome","107.0.0","Windows 10","MullerLyer",1,67,"MullerLyer_20.04286_0.14541",20.04286,"Incongruent","1",0.14541,"down",1,"589"
"S003","Illusion_Session1",1,27.4175166666667,"1920x937",1.79904,60,"chrome","107.0.0","Windows 10","MullerLyer",1,68,"MullerLyer_-20.04286_0.35000",-20.04286,"Congruent","1",0.35,"up",0,"595"
"S003","Illusion_Session1",1,27.4175166666667,"1920x937",1.79904,60,"chrome","107.0.0","Windows 10","MullerLyer",1,69,"MullerLyer_-14.12857_0.14541",-14.12857,"Congruent","1",0.14541,"up",0,"646"
"S003","Illusion_Session1",1,27.4175166666667,"1920x937",1.79904,60,"chrome","107.0.0","Windows 10","MullerLyer",1,70,"MullerLyer_20.04286_-0.14541",20.04286,"Incongruent","-1",0.14541,"up",1,"1814"
"S003","Illusion_Session1",1,27.4175166666667,"1920x937",1.79904,60,"chrome","107.0.0","Windows 10","MullerLyer",1,71,"MullerLyer_-14.12857_0.23665",-14.12857,"Congruent","1",0.23665,"up",0,"618"
"S003","Illusion_Session1",1,27.4175166666667,"1920x937",1.79904,60,"chrome","107.0.0","Windows 10","MullerLyer",1,72,"MullerLyer_8.21429_-0.3500",8.21429,"Incongruent","-1",0.35,"down",0,"638"
"S003","Illusion_Session1",1,27.4175166666667,"1920x937",1.79904,60,"chrome","107.0.0","Windows 10","MullerLyer",1,73,"MullerLyer_-8.21429_0.35000",-8.21429,"Congruent","1",0.35,"up",0,"616"
"S003","Illusion_Session1",1,27.4175166666667,"1920x937",1.79904,60,"chrome","107.0.0","Windows 10","MullerLyer",1,74,"MullerLyer_20.04286_-0.07627",20.04286,"Incongruent","-1",0.07627,"up",1,"1012"
"S003","Illusion_Session1",1,27.4175166666667,"1920x937",1.79904,60,"chrome","107.0.0","Windows 10","MullerLyer",1,75,"MullerLyer_-8.21429_0.07627",-8.21429,"Congruent","1",0.07627,"up",0,"1012"
"S003","Illusion_Session1",1,27.4175166666667,"1920x937",1.79904,60,"chrome","107.0.0","Windows 10","MullerLyer",1,76,"MullerLyer_2.30000_-0.14541",2.3,"Incongruent","-1",0.14541,"down",0,"759"
"S003","Illusion_Session1",1,27.4175166666667,"1920x937",1.79904,60,"chrome","107.0.0","Windows 10","MullerLyer",1,77,"MullerLyer_2.30000_0.07627",2.3,"Incongruent","1",0.07627,"up",0,"1162"
"S003","Illusion_Session1",1,27.4175166666667,"1920x937",1.79904,60,"chrome","107.0.0","Windows 10","MullerLyer",1,78,"MullerLyer_-8.21429_-0.14541",-8.21429,"Congruent","-1",0.14541,"down",0,"554"
"S003","Illusion_Session1",1,27.4175166666667,"1920x937",1.79904,60,"chrome","107.0.0","Windows 10","MullerLyer",1,79,"MullerLyer_-14.12857_0.35000",-14.12857,"Congruent","1",0.35,"up",0,"642"
"S003","Illusion_Session1",1,27.4175166666667,"1920x937",1.79904,60,"chrome","107.0.0","Windows 10","MullerLyer",1,80,"MullerLyer_-14.12857_0.07627",-14.12857,"Congruent","1",0.07627,"up",0,"849"
"S003","Illusion_Session1",1,27.4175166666667,"1920x937",1.79904,60,"chrome","107.0.0","Windows 10","MullerLyer",1,81,"MullerLyer_-2.3000_0.07627",-2.3,"Congruent","1",0.07627,"up",0,"941"
"S003","Illusion_Session1",1,27.4175166666667,"1920x937",1.79904,60,"chrome","107.0.0","Windows 10","MullerLyer",1,82,"MullerLyer_14.12857_-0.07627",14.12857,"Incongruent","-1",0.07627,"up",1,"618"
"S003","Illusion_Session1",1,27.4175166666667,"1920x937",1.79904,60,"chrome","107.0.0","Windows 10","Ebbinghaus",2,1,"Ebbinghaus_-0.35714_-0.2150",-0.35714,"Congruent","-1",0.215,"right",0,"2526"
"S003","Illusion_Session1",1,27.4175166666667,"1920x937",1.79904,60,"chrome","107.0.0","Windows 10","Ebbinghaus",2,2,"Ebbinghaus_0.35714_0.21500",0.35714,"Incongruent","1",0.215,"left",0,"816"
"S003","Illusion_Session1",1,27.4175166666667,"1920x937",1.79904,60,"chrome","107.0.0","Windows 10","Ebbinghaus",2,3,"Ebbinghaus_-0.87143_0.28000",-0.87143,"Congruent","1",0.28,"left",0,"800"
"S003","Illusion_Session1",1,27.4175166666667,"1920x937",1.79904,60,"chrome","107.0.0","Windows 10","Ebbinghaus",2,4,"Ebbinghaus_0.61429_-0.11071",0.61429,"Incongruent","-1",0.11071,"right",0,"465"
"S003","Illusion_Session1",1,27.4175166666667,"1920x937",1.79904,60,"chrome","107.0.0","Windows 10","Ebbinghaus",2,5,"Ebbinghaus_0.61429_-0.2800",0.61429,"Incongruent","-1",0.28,"right",0,"2689"
"S003","Illusion_Session1",1,27.4175166666667,"1920x937",1.79904,60,"chrome","107.0.0","Windows 10","Ebbinghaus",2,6,"Ebbinghaus_-0.87143_-0.11071",-0.87143,"Congruent","-1",0.11071,"right",0,"1374"
"S003","Illusion_Session1",1,27.4175166666667,"1920x937",1.79904,60,"chrome","107.0.0","Windows 10","Ebbinghaus",2,7,"Ebbinghaus_-0.87143_0.21500",-0.87143,"Congruent","1",0.215,"left",0,"985"
"S003","Illusion_Session1",1,27.4175166666667,"1920x937",1.79904,60,"chrome","107.0.0","Windows 10","Ebbinghaus",2,8,"Ebbinghaus_-0.1000_-0.2800",-0.1,"Congruent","-1",0.28,"right",0,"702"
"S003","Illusion_Session1",1,27.4175166666667,"1920x937",1.79904,60,"chrome","107.0.0","Windows 10","Ebbinghaus",2,9,"Ebbinghaus_0.10000_0.15857",0.1,"Incongruent","1",0.15857,"left",0,"1511"
"S003","Illusion_Session1",1,27.4175166666667,"1920x937",1.79904,60,"chrome","107.0.0","Windows 10","Ebbinghaus",2,10,"Ebbinghaus_-0.1000_0.28000",-0.1,"Congruent","1",0.28,"left",0,"755"
"S003","Illusion_Session1",1,27.4175166666667,"1920x937",1.79904,60,"chrome","107.0.0","Windows 10","Ebbinghaus",2,11,"Ebbinghaus_0.35714_0.11071",0.35714,"Incongruent","1",0.11071,"left",0,"764"
"S003","Illusion_Session1",1,27.4175166666667,"1920x937",1.79904,60,"chrome","107.0.0","Windows 10","Ebbinghaus",2,12,"Ebbinghaus_-0.1000_0.11071",-0.1,"Congruent","1",0.11071,"right",1,"1976"
"S003","Illusion_Session1",1,27.4175166666667,"1920x937",1.79904,60,"chrome","107.0.0","Windows 10","Ebbinghaus",2,13,"Ebbinghaus_-0.35714_0.21500",-0.35714,"Congruent","1",0.215,"right",1,"1035"
"S003","Illusion_Session1",1,27.4175166666667,"1920x937",1.79904,60,"chrome","107.0.0","Windows 10","Ebbinghaus",2,14,"Ebbinghaus_-0.61429_0.15857",-0.61429,"Congruent","1",0.15857,"left",0,"1982"
"S003","Illusion_Session1",1,27.4175166666667,"1920x937",1.79904,60,"chrome","107.0.0","Windows 10","Ebbinghaus",2,15,"Ebbinghaus_-0.87143_0.15857",-0.87143,"Congruent","1",0.15857,"left",0,"1225"
"S003","Illusion_Session1",1,27.4175166666667,"1920x937",1.79904,60,"chrome","107.0.0","Windows 10","Ebbinghaus",2,16,"Ebbinghaus_-0.1000_-0.11071",-0.1,"Congruent","-1",0.11071,"left",1,"618"
"S003","Illusion_Session1",1,27.4175166666667,"1920x937",1.79904,60,"chrome","107.0.0","Windows 10","Ebbinghaus",2,17,"Ebbinghaus_0.87143_-0.2800",0.87143,"Incongruent","-1",0.28,"right",0,"970"
"S003","Illusion_Session1",1,27.4175166666667,"1920x937",1.79904,60,"chrome","107.0.0","Windows 10","Ebbinghaus",2,18,"Ebbinghaus_0.87143_0.11071",0.87143,"Incongruent","1",0.11071,"left",0,"630"
"S003","Illusion_Session1",1,27.4175166666667,"1920x937",1.79904,60,"chrome","107.0.0","Windows 10","Ebbinghaus",2,19,"Ebbinghaus_-0.61429_-0.15857",-0.61429,"Congruent","-1",0.15857,"right",0,"877"
"S003","Illusion_Session1",1,27.4175166666667,"1920x937",1.79904,60,"chrome","107.0.0","Windows 10","Ebbinghaus",2,20,"Ebbinghaus_-0.35714_-0.15857",-0.35714,"Congruent","-1",0.15857,"right",0,"797"
"S003","Illusion_Session1",1,27.4175166666667,"1920x937",1.79904,60,"chrome","107.0.0","Windows 10","Ebbinghaus",2,21,"Ebbinghaus_0.10000_0.28000",0.1,"Incongruent","1",0.28,"left",0,"982"
"S003","Illusion_Session1",1,27.4175166666667,"1920x937",1.79904,60,"chrome","107.0.0","Windows 10","Ebbinghaus",2,22,"Ebbinghaus_0.10000_-0.2150",0.1,"Incongruent","-1",0.215,"right",0,"713"
"S003","Illusion_Session1",1,27.4175166666667,"1920x937",1.79904,60,"chrome","107.0.0","Windows 10","Ebbinghaus",2,23,"Ebbinghaus_-0.87143_-0.2800",-0.87143,"Congruent","-1",0.28,"right",0,"1527"
"S003","Illusion_Session1",1,27.4175166666667,"1920x937",1.79904,60,"chrome","107.0.0","Windows 10","Ebbinghaus",2,24,"Ebbinghaus_-0.61429_0.28000",-0.61429,"Congruent","1",0.28,"left",0,"989"
"S003","Illusion_Session1",1,27.4175166666667,"1920x937",1.79904,60,"chrome","107.0.0","Windows 10","Ebbinghaus",2,25,"Ebbinghaus_-0.1000_0.21500",-0.1,"Congruent","1",0.215,"left",0,"982"
"S003","Illusion_Session1",1,27.4175166666667,"1920x937",1.79904,60,"chrome","107.0.0","Windows 10","Ebbinghaus",2,26,"Ebbinghaus_-0.35714_0.11071",-0.35714,"Congruent","1",0.11071,"left",0,"860"
"S003","Illusion_Session1",1,27.4175166666667,"1920x937",1.79904,60,"chrome","107.0.0","Windows 10","Ebbinghaus",2,27,"Ebbinghaus_0.10000_-0.15857",0.1,"Incongruent","-1",0.15857,"right",0,"1301"
"S003","Illusion_Session1",1,27.4175166666667,"1920x937",1.79904,60,"chrome","107.0.0","Windows 10","Ebbinghaus",2,28,"Ebbinghaus_0.35714_-0.15857",0.35714,"Incongruent","-1",0.15857,"right",0,"906"
"S003","Illusion_Session1",1,27.4175166666667,"1920x937",1.79904,60,"chrome","107.0.0","Windows 10","Ebbinghaus",2,29,"Ebbinghaus_0.10000_-0.11071",0.1,"Incongruent","-1",0.11071,"right",0,"2676"
"S003","Illusion_Session1",1,27.4175166666667,"1920x937",1.79904,60,"chrome","107.0.0","Windows 10","Ebbinghaus",2,30,"Ebbinghaus_0.61429_-0.2150",0.61429,"Incongruent","-1",0.215,"right",0,"1721"
"S003","Illusion_Session1",1,27.4175166666667,"1920x937",1.79904,60,"chrome","107.0.0","Windows 10","Ebbinghaus",2,31,"Ebbinghaus_0.87143_-0.2150",0.87143,"Incongruent","-1",0.215,"right",0,"802"
"S003","Illusion_Session1",1,27.4175166666667,"1920x937",1.79904,60,"chrome","107.0.0","Windows 10","Ebbinghaus",2,32,"Ebbinghaus_0.87143_0.15857",0.87143,"Incongruent","1",0.15857,"right",1,"1316"
"S003","Illusion_Session1",1,27.4175166666667,"1920x937",1.79904,60,"chrome","107.0.0","Windows 10","Ebbinghaus",2,33,"Ebbinghaus_-0.87143_-0.15857",-0.87143,"Congruent","-1",0.15857,"right",0,"1119"
"S003","Illusion_Session1",1,27.4175166666667,"1920x937",1.79904,60,"chrome","107.0.0","Windows 10","Ebbinghaus",2,34,"Ebbinghaus_0.35714_-0.11071",0.35714,"Incongruent","-1",0.11071,"right",0,"711"
"S003","Illusion_Session1",1,27.4175166666667,"1920x937",1.79904,60,"chrome","107.0.0","Windows 10","Ebbinghaus",2,35,"Ebbinghaus_-0.35714_-0.2800",-0.35714,"Congruent","-1",0.28,"right",0,"820"
"S003","Illusion_Session1",1,27.4175166666667,"1920x937",1.79904,60,"chrome","107.0.0","Windows 10","Ebbinghaus",2,36,"Ebbinghaus_0.61429_0.21500",0.61429,"Incongruent","1",0.215,"left",0,"735"
"S003","Illusion_Session1",1,27.4175166666667,"1920x937",1.79904,60,"chrome","107.0.0","Windows 10","Ebbinghaus",2,37,"Ebbinghaus_0.87143_-0.15857",0.87143,"Incongruent","-1",0.15857,"right",0,"511"
"S003","Illusion_Session1",1,27.4175166666667,"1920x937",1.79904,60,"chrome","107.0.0","Windows 10","Ebbinghaus",2,38,"Ebbinghaus_-0.1000_-0.2150",-0.1,"Congruent","-1",0.215,"left",1,"1122"
"S003","Illusion_Session1",1,27.4175166666667,"1920x937",1.79904,60,"chrome","107.0.0","Windows 10","Ebbinghaus",2,39,"Ebbinghaus_0.10000_0.11071",0.1,"Incongruent","1",0.11071,"left",0,"678"
"S003","Illusion_Session1",1,27.4175166666667,"1920x937",1.79904,60,"chrome","107.0.0","Windows 10","Ebbinghaus",2,40,"Ebbinghaus_-0.87143_-0.2150",-0.87143,"Congruent","-1",0.215,"right",0,"554"
"S003","Illusion_Session1",1,27.4175166666667,"1920x937",1.79904,60,"chrome","107.0.0","Windows 10","Ebbinghaus",2,41,"Ebbinghaus_0.87143_-0.11071",0.87143,"Incongruent","-1",0.11071,"left",1,"916"
"S003","Illusion_Session1",1,27.4175166666667,"1920x937",1.79904,60,"chrome","107.0.0","Windows 10","Ebbinghaus",2,42,"Ebbinghaus_0.10000_0.21500",0.1,"Incongruent","1",0.215,"left",0,"576"
"S003","Illusion_Session1",1,27.4175166666667,"1920x937",1.79904,60,"chrome","107.0.0","Windows 10","Ebbinghaus",2,43,"Ebbinghaus_0.87143_0.21500",0.87143,"Incongruent","1",0.215,"left",0,"586"
"S003","Illusion_Session1",1,27.4175166666667,"1920x937",1.79904,60,"chrome","107.0.0","Windows 10","Ebbinghaus",2,44,"Ebbinghaus_-0.1000_-0.15857",-0.1,"Congruent","-1",0.15857,"right",0,"538"
"S003","Illusion_Session1",1,27.4175166666667,"1920x937",1.79904,60,"chrome","107.0.0","Windows 10","Ebbinghaus",2,45,"Ebbinghaus_0.35714_0.15857",0.35714,"Incongruent","1",0.15857,"left",0,"787"
"S003","Illusion_Session1",1,27.4175166666667,"1920x937",1.79904,60,"chrome","107.0.0","Windows 10","Ebbinghaus",2,46,"Ebbinghaus_-0.61429_-0.2150",-0.61429,"Congruent","-1",0.215,"right",0,"635"
"S003","Illusion_Session1",1,27.4175166666667,"1920x937",1.79904,60,"chrome","107.0.0","Windows 10","Ebbinghaus",2,47,"Ebbinghaus_-0.35714_-0.11071",-0.35714,"Congruent","-1",0.11071,"right",0,"743"
"S003","Illusion_Session1",1,27.4175166666667,"1920x937",1.79904,60,"chrome","107.0.0","Windows 10","Ebbinghaus",2,48,"Ebbinghaus_-0.35714_0.28000",-0.35714,"Congruent","1",0.28,"left",0,"697"
"S003","Illusion_Session1",1,27.4175166666667,"1920x937",1.79904,60,"chrome","107.0.0","Windows 10","Ebbinghaus",2,49,"Ebbinghaus_0.35714_-0.2800",0.35714,"Incongruent","-1",0.28,"right",0,"618"
"S003","Illusion_Session1",1,27.4175166666667,"1920x937",1.79904,60,"chrome","107.0.0","Windows 10","Ebbinghaus",2,50,"Ebbinghaus_0.61429_0.11071",0.61429,"Incongruent","1",0.11071,"right",1,"969"
"S003","Illusion_Session1",1,27.4175166666667,"1920x937",1.79904,60,"chrome","107.0.0","Windows 10","Ebbinghaus",2,51,"Ebbinghaus_0.87143_0.28000",0.87143,"Incongruent","1",0.28,"left",0,"705"
"S003","Illusion_Session1",1,27.4175166666667,"1920x937",1.79904,60,"chrome","107.0.0","Windows 10","Ebbinghaus",2,52,"Ebbinghaus_0.35714_0.28000",0.35714,"Incongruent","1",0.28,"left",0,"817"
"S003","Illusion_Session1",1,27.4175166666667,"1920x937",1.79904,60,"chrome","107.0.0","Windows 10","Ebbinghaus",2,53,"Ebbinghaus_0.61429_-0.15857",0.61429,"Incongruent","-1",0.15857,"right",0,"634"
"S003","Illusion_Session1",1,27.4175166666667,"1920x937",1.79904,60,"chrome","107.0.0","Windows 10","Ebbinghaus",2,54,"Ebbinghaus_0.61429_0.15857",0.61429,"Incongruent","1",0.15857,"left",0,"779"
"S003","Illusion_Session1",1,27.4175166666667,"1920x937",1.79904,60,"chrome","107.0.0","Windows 10","Ebbinghaus",2,55,"Ebbinghaus_-0.61429_0.11071",-0.61429,"Congruent","1",0.11071,"left",0,"839"
"S003","Illusion_Session1",1,27.4175166666667,"1920x937",1.79904,60,"chrome","107.0.0","Windows 10","Ebbinghaus",2,56,"Ebbinghaus_-0.1000_0.15857",-0.1,"Congruent","1",0.15857,"left",0,"1112"
"S003","Illusion_Session1",1,27.4175166666667,"1920x937",1.79904,60,"chrome","107.0.0","Windows 10","Ebbinghaus",2,57,"Ebbinghaus_-0.87143_0.11071",-0.87143,"Congruent","1",0.11071,"left",0,"893"
"S003","Illusion_Session1",1,27.4175166666667,"1920x937",1.79904,60,"chrome","107.0.0","Windows 10","Ebbinghaus",2,58,"Ebbinghaus_-0.61429_-0.2800",-0.61429,"Congruent","-1",0.28,"right",0,"772"
"S003","Illusion_Session1",1,27.4175166666667,"1920x937",1.79904,60,"chrome","107.0.0","Windows 10","Ebbinghaus",2,59,"Ebbinghaus_-0.35714_0.15857",-0.35714,"Congruent","1",0.15857,"left",0,"678"
"S003","Illusion_Session1",1,27.4175166666667,"1920x937",1.79904,60,"chrome","107.0.0","Windows 10","Ebbinghaus",2,60,"Ebbinghaus_0.10000_-0.2800",0.1,"Incongruent","-1",0.28,"right",0,"626"
"S003","Illusion_Session1",1,27.4175166666667,"1920x937",1.79904,60,"chrome","107.0.0","Windows 10","Ebbinghaus",2,61,"Ebbinghaus_0.35714_-0.2150",0.35714,"Incongruent","-1",0.215,"right",0,"669"
"S003","Illusion_Session1",1,27.4175166666667,"1920x937",1.79904,60,"chrome","107.0.0","Windows 10","Ebbinghaus",2,62,"Ebbinghaus_-0.61429_0.21500",-0.61429,"Congruent","1",0.215,"left",0,"703"
"S003","Illusion_Session1",1,27.4175166666667,"1920x937",1.79904,60,"chrome","107.0.0","Windows 10","Ebbinghaus",2,63,"Ebbinghaus_0.61429_0.28000",0.61429,"Incongruent","1",0.28,"left",0,"1200"
"S003","Illusion_Session1",1,27.4175166666667,"1920x937",1.79904,60,"chrome","107.0.0","Windows 10","Ebbinghaus",2,64,"Ebbinghaus_-0.61429_-0.11071",-0.61429,"Congruent","-1",0.11071,"right",0,"4876"
"S003","Illusion_Session1",1,27.4175166666667,"1920x937",1.79904,60,"chrome","107.0.0","Windows 10","VerticalHorizontal",3,1,"VerticalHorizontal_3.30000_-0.0673",3.3,"Incongruent","-1",0.0673,"right",0,"1631"
"S003","Illusion_Session1",1,27.4175166666667,"1920x937",1.79904,60,"chrome","107.0.0","Windows 10","VerticalHorizontal",3,2,"VerticalHorizontal_11.78571_-0.1096",11.78571,"Incongruent","-1",0.1096,"left",1,"677"
"S003","Illusion_Session1",1,27.4175166666667,"1920x937",1.79904,60,"chrome","107.0.0","Windows 10","VerticalHorizontal",3,3,"VerticalHorizontal_-3.3000_-0.2250",-3.3,"Congruent","-1",0.225,"right",0,"668"
"S003","Illusion_Session1",1,27.4175166666667,"1920x937",1.79904,60,"chrome","107.0.0","Windows 10","VerticalHorizontal",3,4,"VerticalHorizontal_-20.27143_-0.1096",-20.27143,"Congruent","-1",0.1096,"right",0,"524"
"S003","Illusion_Session1",1,27.4175166666667,"1920x937",1.79904,60,"chrome","107.0.0","Windows 10","VerticalHorizontal",3,5,"VerticalHorizontal_-28.75714_-0.1096",-28.75714,"Congruent","-1",0.1096,"right",0,"492"
"S003","Illusion_Session1",1,27.4175166666667,"1920x937",1.79904,60,"chrome","107.0.0","Windows 10","VerticalHorizontal",3,6,"VerticalHorizontal_-3.3000_0.06730",-3.3,"Congruent","1",0.0673,"left",0,"803"
"S003","Illusion_Session1",1,27.4175166666667,"1920x937",1.79904,60,"chrome","107.0.0","Windows 10","VerticalHorizontal",3,7,"VerticalHorizontal_-3.3000_-0.0673",-3.3,"Congruent","-1",0.0673,"right",0,"1271"
"S003","Illusion_Session1",1,27.4175166666667,"1920x937",1.79904,60,"chrome","107.0.0","Windows 10","VerticalHorizontal",3,8,"VerticalHorizontal_28.75714_0.16217",28.75714,"Incongruent","1",0.16217,"right",1,"816"
"S003","Illusion_Session1",1,27.4175166666667,"1920x937",1.79904,60,"chrome","107.0.0","Windows 10","VerticalHorizontal",3,9,"VerticalHorizontal_-28.75714_-0.2250",-28.75714,"Congruent","-1",0.225,"right",0,"525"
"S003","Illusion_Session1",1,27.4175166666667,"1920x937",1.79904,60,"chrome","107.0.0","Windows 10","VerticalHorizontal",3,10,"VerticalHorizontal_28.75714_0.10960",28.75714,"Incongruent","1",0.1096,"right",1,"943"
"S003","Illusion_Session1",1,27.4175166666667,"1920x937",1.79904,60,"chrome","107.0.0","Windows 10","VerticalHorizontal",3,11,"VerticalHorizontal_20.27143_0.10960",20.27143,"Incongruent","1",0.1096,"right",1,"1101"
"S003","Illusion_Session1",1,27.4175166666667,"1920x937",1.79904,60,"chrome","107.0.0","Windows 10","VerticalHorizontal",3,12,"VerticalHorizontal_-11.78571_0.06730",-11.78571,"Congruent","1",0.0673,"left",0,"668"
"S003","Illusion_Session1",1,27.4175166666667,"1920x937",1.79904,60,"chrome","107.0.0","Windows 10","VerticalHorizontal",3,13,"VerticalHorizontal_28.75714_-0.2250",28.75714,"Incongruent","-1",0.225,"left",1,"513"
"S003","Illusion_Session1",1,27.4175166666667,"1920x937",1.79904,60,"chrome","107.0.0","Windows 10","VerticalHorizontal",3,14,"VerticalHorizontal_-28.75714_0.10960",-28.75714,"Congruent","1",0.1096,"left",0,"462"
"S003","Illusion_Session1",1,27.4175166666667,"1920x937",1.79904,60,"chrome","107.0.0","Windows 10","VerticalHorizontal",3,15,"VerticalHorizontal_28.75714_-0.0673",28.75714,"Incongruent","-1",0.0673,"left",1,"501"
"S003","Illusion_Session1",1,27.4175166666667,"1920x937",1.79904,60,"chrome","107.0.0","Windows 10","VerticalHorizontal",3,16,"VerticalHorizontal_-28.75714_-0.0673",-28.75714,"Congruent","-1",0.0673,"right",0,"550"
"S003","Illusion_Session1",1,27.4175166666667,"1920x937",1.79904,60,"chrome","107.0.0","Windows 10","VerticalHorizontal",3,17,"VerticalHorizontal_-11.78571_-0.16217",-11.78571,"Congruent","-1",0.16217,"right",0,"568"
"S003","Illusion_Session1",1,27.4175166666667,"1920x937",1.79904,60,"chrome","107.0.0","Windows 10","VerticalHorizontal",3,18,"VerticalHorizontal_-3.3000_0.10960",-3.3,"Congruent","1",0.1096,"left",0,"583"
"S003","Illusion_Session1",1,27.4175166666667,"1920x937",1.79904,60,"chrome","107.0.0","Windows 10","VerticalHorizontal",3,19,"VerticalHorizontal_28.75714_-0.16217",28.75714,"Incongruent","-1",0.16217,"right",0,"534"
"S003","Illusion_Session1",1,27.4175166666667,"1920x937",1.79904,60,"chrome","107.0.0","Windows 10","VerticalHorizontal",3,20,"VerticalHorizontal_11.78571_0.16217",11.78571,"Incongruent","1",0.16217,"left",0,"616"
"S003","Illusion_Session1",1,27.4175166666667,"1920x937",1.79904,60,"chrome","107.0.0","Windows 10","VerticalHorizontal",3,21,"VerticalHorizontal_-28.75714_0.16217",-28.75714,"Congruent","1",0.16217,"left",0,"521"
"S003","Illusion_Session1",1,27.4175166666667,"1920x937",1.79904,60,"chrome","107.0.0","Windows 10","VerticalHorizontal",3,22,"VerticalHorizontal_-3.3000_-0.16217",-3.3,"Congruent","-1",0.16217,"left",1,"393"
"S003","Illusion_Session1",1,27.4175166666667,"1920x937",1.79904,60,"chrome","107.0.0","Windows 10","VerticalHorizontal",3,23,"VerticalHorizontal_-3.3000_-0.1096",-3.3,"Congruent","-1",0.1096,"right",0,"639"
"S003","Illusion_Session1",1,27.4175166666667,"1920x937",1.79904,60,"chrome","107.0.0","Windows 10","VerticalHorizontal",3,24,"VerticalHorizontal_28.75714_-0.1096",28.75714,"Incongruent","-1",0.1096,"left",1,"554"
"S003","Illusion_Session1",1,27.4175166666667,"1920x937",1.79904,60,"chrome","107.0.0","Windows 10","VerticalHorizontal",3,25,"VerticalHorizontal_-28.75714_0.22500",-28.75714,"Congruent","1",0.225,"left",0,"501"
"S003","Illusion_Session1",1,27.4175166666667,"1920x937",1.79904,60,"chrome","107.0.0","Windows 10","VerticalHorizontal",3,26,"VerticalHorizontal_11.78571_-0.0673",11.78571,"Incongruent","-1",0.0673,"right",0,"824"
"S003","Illusion_Session1",1,27.4175166666667,"1920x937",1.79904,60,"chrome","107.0.0","Windows 10","VerticalHorizontal",3,27,"VerticalHorizontal_3.30000_0.10960",3.3,"Incongruent","1",0.1096,"left",0,"616"
"S003","Illusion_Session1",1,27.4175166666667,"1920x937",1.79904,60,"chrome","107.0.0","Windows 10","VerticalHorizontal",3,28,"VerticalHorizontal_11.78571_0.10960",11.78571,"Incongruent","1",0.1096,"right",1,"699"
"S003","Illusion_Session1",1,27.4175166666667,"1920x937",1.79904,60,"chrome","107.0.0","Windows 10","VerticalHorizontal",3,29,"VerticalHorizontal_-11.78571_-0.1096",-11.78571,"Congruent","-1",0.1096,"right",0,"691"
"S003","Illusion_Session1",1,27.4175166666667,"1920x937",1.79904,60,"chrome","107.0.0","Windows 10","VerticalHorizontal",3,30,"VerticalHorizontal_3.30000_0.16217",3.3,"Incongruent","1",0.16217,"left",0,"811"
"S003","Illusion_Session1",1,27.4175166666667,"1920x937",1.79904,60,"chrome","107.0.0","Windows 10","VerticalHorizontal",3,31,"VerticalHorizontal_11.78571_0.06730",11.78571,"Incongruent","1",0.0673,"right",1,"1198"
"S003","Illusion_Session1",1,27.4175166666667,"1920x937",1.79904,60,"chrome","107.0.0","Windows 10","VerticalHorizontal",3,32,"VerticalHorizontal_20.27143_-0.2250",20.27143,"Incongruent","-1",0.225,"right",0,"539"
"S003","Illusion_Session1",1,27.4175166666667,"1920x937",1.79904,60,"chrome","107.0.0","Windows 10","VerticalHorizontal",3,33,"VerticalHorizontal_20.27143_0.06730",20.27143,"Incongruent","1",0.0673,"right",1,"958"
"S003","Illusion_Session1",1,27.4175166666667,"1920x937",1.79904,60,"chrome","107.0.0","Windows 10","VerticalHorizontal",3,34,"VerticalHorizontal_-11.78571_0.10960",-11.78571,"Congruent","1",0.1096,"left",0,"587"
"S003","Illusion_Session1",1,27.4175166666667,"1920x937",1.79904,60,"chrome","107.0.0","Windows 10","VerticalHorizontal",3,35,"VerticalHorizontal_20.27143_-0.0673",20.27143,"Incongruent","-1",0.0673,"left",1,"651"
"S003","Illusion_Session1",1,27.4175166666667,"1920x937",1.79904,60,"chrome","107.0.0","Windows 10","VerticalHorizontal",3,36,"VerticalHorizontal_-11.78571_-0.2250",-11.78571,"Congruent","-1",0.225,"right",0,"646"
"S003","Illusion_Session1",1,27.4175166666667,"1920x937",1.79904,60,"chrome","107.0.0","Windows 10","VerticalHorizontal",3,37,"VerticalHorizontal_-20.27143_-0.16217",-20.27143,"Congruent","-1",0.16217,"right",0,"566"
"S003","Illusion_Session1",1,27.4175166666667,"1920x937",1.79904,60,"chrome","107.0.0","Windows 10","VerticalHorizontal",3,38,"VerticalHorizontal_-20.27143_-0.2250",-20.27143,"Congruent","-1",0.225,"right",0,"641"
"S003","Illusion_Session1",1,27.4175166666667,"1920x937",1.79904,60,"chrome","107.0.0","Windows 10","VerticalHorizontal",3,39,"VerticalHorizontal_-11.78571_0.16217",-11.78571,"Congruent","1",0.16217,"left",0,"522"
"S003","Illusion_Session1",1,27.4175166666667,"1920x937",1.79904,60,"chrome","107.0.0","Windows 10","VerticalHorizontal",3,40,"VerticalHorizontal_-28.75714_0.06730",-28.75714,"Congruent","1",0.0673,"left",0,"610"
"S003","Illusion_Session1",1,27.4175166666667,"1920x937",1.79904,60,"chrome","107.0.0","Windows 10","VerticalHorizontal",3,41,"VerticalHorizontal_28.75714_0.06730",28.75714,"Incongruent","1",0.0673,"right",1,"985"
"S003","Illusion_Session1",1,27.4175166666667,"1920x937",1.79904,60,"chrome","107.0.0","Windows 10","VerticalHorizontal",3,42,"VerticalHorizontal_3.30000_-0.16217",3.3,"Incongruent","-1",0.16217,"right",0,"596"
"S003","Illusion_Session1",1,27.4175166666667,"1920x937",1.79904,60,"chrome","107.0.0","Windows 10","VerticalHorizontal",3,43,"VerticalHorizontal_-20.27143_0.10960",-20.27143,"Congruent","1",0.1096,"left",0,"586"
"S003","Illusion_Session1",1,27.4175166666667,"1920x937",1.79904,60,"chrome","107.0.0","Windows 10","VerticalHorizontal",3,44,"VerticalHorizontal_3.30000_-0.2250",3.3,"Incongruent","-1",0.225,"right",0,"532"
"S003","Illusion_Session1",1,27.4175166666667,"1920x937",1.79904,60,"chrome","107.0.0","Windows 10","VerticalHorizontal",3,45,"VerticalHorizontal_-20.27143_0.22500",-20.27143,"Congruent","1",0.225,"left",0,"523"
"S003","Illusion_Session1",1,27.4175166666667,"1920x937",1.79904,60,"chrome","107.0.0","Windows 10","VerticalHorizontal",3,46,"VerticalHorizontal_-11.78571_0.22500",-11.78571,"Congruent","1",0.225,"left",0,"539"
"S003","Illusion_Session1",1,27.4175166666667,"1920x937",1.79904,60,"chrome","107.0.0","Windows 10","VerticalHorizontal",3,47,"VerticalHorizontal_-3.3000_0.16217",-3.3,"Congruent","1",0.16217,"left",0,"679"
"S003","Illusion_Session1",1,27.4175166666667,"1920x937",1.79904,60,"chrome","107.0.0","Windows 10","VerticalHorizontal",3,48,"VerticalHorizontal_11.78571_-0.16217",11.78571,"Incongruent","-1",0.16217,"right",0,"684"
"S003","Illusion_Session1",1,27.4175166666667,"1920x937",1.79904,60,"chrome","107.0.0","Windows 10","VerticalHorizontal",3,49,"VerticalHorizontal_-3.3000_0.22500",-3.3,"Congruent","1",0.225,"left",0,"566"
"S003","Illusion_Session1",1,27.4175166666667,"1920x937",1.79904,60,"chrome","107.0.0","Windows 10","VerticalHorizontal",3,50,"VerticalHorizontal_3.30000_0.06730",3.3,"Incongruent","1",0.0673,"left",0,"892"
"S003","Illusion_Session1",1,27.4175166666667,"1920x937",1.79904,60,"chrome","107.0.0","Windows 10","VerticalHorizontal",3,51,"VerticalHorizontal_11.78571_0.22500",11.78571,"Incongruent","1",0.225,"left",0,"595"
"S003","Illusion_Session1",1,27.4175166666667,"1920x937",1.79904,60,"chrome","107.0.0","Windows 10","VerticalHorizontal",3,52,"VerticalHorizontal_-20.27143_-0.0673",-20.27143,"Congruent","-1",0.0673,"right",0,"589"
"S003","Illusion_Session1",1,27.4175166666667,"1920x937",1.79904,60,"chrome","107.0.0","Windows 10","VerticalHorizontal",3,53,"VerticalHorizontal_20.27143_0.16217",20.27143,"Incongruent","1",0.16217,"left",0,"651"
"S003","Illusion_Session1",1,27.4175166666667,"1920x937",1.79904,60,"chrome","107.0.0","Windows 10","VerticalHorizontal",3,54,"VerticalHorizontal_-20.27143_0.06730",-20.27143,"Congruent","1",0.0673,"left",0,"514"
"S003","Illusion_Session1",1,27.4175166666667,"1920x937",1.79904,60,"chrome","107.0.0","Windows 10","VerticalHorizontal",3,55,"VerticalHorizontal_-20.27143_0.16217",-20.27143,"Congruent","1",0.16217,"left",0,"497"
"S003","Illusion_Session1",1,27.4175166666667,"1920x937",1.79904,60,"chrome","107.0.0","Windows 10","VerticalHorizontal",3,56,"VerticalHorizontal_-28.75714_-0.16217",-28.75714,"Congruent","-1",0.16217,"right",0,"536"
"S003","Illusion_Session1",1,27.4175166666667,"1920x937",1.79904,60,"chrome","107.0.0","Windows 10","VerticalHorizontal",3,57,"VerticalHorizontal_20.27143_-0.16217",20.27143,"Incongruent","-1",0.16217,"left",1,"801"
"S003","Illusion_Session1",1,27.4175166666667,"1920x937",1.79904,60,"chrome","107.0.0","Windows 10","VerticalHorizontal",3,58,"VerticalHorizontal_3.30000_-0.1096",3.3,"Incongruent","-1",0.1096,"right",0,"629"
"S003","Illusion_Session1",1,27.4175166666667,"1920x937",1.79904,60,"chrome","107.0.0","Windows 10","VerticalHorizontal",3,59,"VerticalHorizontal_28.75714_0.22500",28.75714,"Incongruent","1",0.225,"left",0,"639"
"S003","Illusion_Session1",1,27.4175166666667,"1920x937",1.79904,60,"chrome","107.0.0","Windows 10","VerticalHorizontal",3,60,"VerticalHorizontal_20.27143_0.22500",20.27143,"Incongruent","1",0.225,"left",0,"571"
"S003","Illusion_Session1",1,27.4175166666667,"1920x937",1.79904,60,"chrome","107.0.0","Windows 10","VerticalHorizontal",3,61,"VerticalHorizontal_-11.78571_-0.0673",-11.78571,"Congruent","-1",0.0673,"right",0,"586"
"S003","Illusion_Session1",1,27.4175166666667,"1920x937",1.79904,60,"chrome","107.0.0","Windows 10","VerticalHorizontal",3,62,"VerticalHorizontal_3.30000_0.22500",3.3,"Incongruent","1",0.225,"left",0,"497"
"S003","Illusion_Session1",1,27.4175166666667,"1920x937",1.79904,60,"chrome","107.0.0","Windows 10","VerticalHorizontal",3,63,"VerticalHorizontal_11.78571_-0.2250",11.78571,"Incongruent","-1",0.225,"right",0,"671"
"S003","Illusion_Session1",1,27.4175166666667,"1920x937",1.79904,60,"chrome","107.0.0","Windows 10","VerticalHorizontal",3,64,"VerticalHorizontal_20.27143_-0.1096",20.27143,"Incongruent","-1",0.1096,"left",1,"844"
"S003","Illusion_Session1",1,27.4175166666667,"1920x937",1.79904,60,"chrome","107.0.0","Windows 10","MullerLyer",4,1,"MullerLyer_-5.25714_-0.10808",-5.25714,"Congruent","-1",0.10808,"down",0,"1389"
"S003","Illusion_Session1",1,27.4175166666667,"1920x937",1.79904,60,"chrome","107.0.0","Windows 10","MullerLyer",4,2,"MullerLyer_11.17143_0.18826",11.17143,"Incongruent","1",0.18826,"up",0,"2058"
"S003","Illusion_Session1",1,27.4175166666667,"1920x937",1.79904,60,"chrome","107.0.0","Windows 10","MullerLyer",4,3,"MullerLyer_23.0000_-0.0500",23,"Incongruent","-1",0.05,"up",1,"1027"
"S003","Illusion_Session1",1,27.4175166666667,"1920x937",1.79904,60,"chrome","107.0.0","Windows 10","MullerLyer",4,4,"MullerLyer_-17.08571_-0.0500",-17.08571,"Congruent","-1",0.05,"down",0,"693"
"S003","Illusion_Session1",1,27.4175166666667,"1920x937",1.79904,60,"chrome","107.0.0","Windows 10","MullerLyer",4,5,"MullerLyer_11.17143_-0.29056",11.17143,"Incongruent","-1",0.29056,"down",0,"974"
"S003","Illusion_Session1",1,27.4175166666667,"1920x937",1.79904,60,"chrome","107.0.0","Windows 10","MullerLyer",4,6,"MullerLyer_23.0000_0.18826",23,"Incongruent","1",0.18826,"down",1,"949"
"S003","Illusion_Session1",1,27.4175166666667,"1920x937",1.79904,60,"chrome","107.0.0","Windows 10","MullerLyer",4,7,"MullerLyer_-17.08571_-0.29056",-17.08571,"Congruent","-1",0.29056,"down",0,"621"
"S003","Illusion_Session1",1,27.4175166666667,"1920x937",1.79904,60,"chrome","107.0.0","Windows 10","MullerLyer",4,8,"MullerLyer_23.0000_-0.10808",23,"Incongruent","-1",0.10808,"up",1,"1098"
"S003","Illusion_Session1",1,27.4175166666667,"1920x937",1.79904,60,"chrome","107.0.0","Windows 10","MullerLyer",4,9,"MullerLyer_17.08571_-0.0500",17.08571,"Incongruent","-1",0.05,"up",1,"800"
"S003","Illusion_Session1",1,27.4175166666667,"1920x937",1.79904,60,"chrome","107.0.0","Windows 10","MullerLyer",4,10,"MullerLyer_-23.000_-0.18826",-23,"Congruent","-1",0.18826,"down",0,"618"
"S003","Illusion_Session1",1,27.4175166666667,"1920x937",1.79904,60,"chrome","107.0.0","Windows 10","MullerLyer",4,11,"MullerLyer_-17.08571_-0.18826",-17.08571,"Congruent","-1",0.18826,"down",0,"608"
"S003","Illusion_Session1",1,27.4175166666667,"1920x937",1.79904,60,"chrome","107.0.0","Windows 10","MullerLyer",4,12,"MullerLyer_-11.17143_0.29056",-11.17143,"Congruent","1",0.29056,"up",0,"640"
"S003","Illusion_Session1",1,27.4175166666667,"1920x937",1.79904,60,"chrome","107.0.0","Windows 10","MullerLyer",4,13,"MullerLyer_23.0000_-0.18826",23,"Incongruent","-1",0.18826,"up",1,"2541"
"S003","Illusion_Session1",1,27.4175166666667,"1920x937",1.79904,60,"chrome","107.0.0","Windows 10","MullerLyer",4,14,"MullerLyer_23.0000_0.10808",23,"Incongruent","1",0.10808,"down",1,"583"
"S003","Illusion_Session1",1,27.4175166666667,"1920x937",1.79904,60,"chrome","107.0.0","Windows 10","MullerLyer",4,15,"MullerLyer_-5.25714_0.05000",-5.25714,"Congruent","1",0.05,"up",0,"1250"
"S003","Illusion_Session1",1,27.4175166666667,"1920x937",1.79904,60,"chrome","107.0.0","Windows 10","MullerLyer",4,16,"MullerLyer_5.25714_-0.18826",5.25714,"Incongruent","-1",0.18826,"down",0,"603"
"S003","Illusion_Session1",1,27.4175166666667,"1920x937",1.79904,60,"chrome","107.0.0","Windows 10","MullerLyer",4,17,"MullerLyer_5.25714_-0.29056",5.25714,"Incongruent","-1",0.29056,"down",0,"744"
"S003","Illusion_Session1",1,27.4175166666667,"1920x937",1.79904,60,"chrome","107.0.0","Windows 10","MullerLyer",4,18,"MullerLyer_17.08571_0.10808",17.08571,"Incongruent","1",0.10808,"down",1,"731"
"S003","Illusion_Session1",1,27.4175166666667,"1920x937",1.79904,60,"chrome","107.0.0","Windows 10","MullerLyer",4,19,"MullerLyer_-11.17143_-0.29056",-11.17143,"Congruent","-1",0.29056,"down",0,"683"
"S003","Illusion_Session1",1,27.4175166666667,"1920x937",1.79904,60,"chrome","107.0.0","Windows 10","MullerLyer",4,20,"MullerLyer_11.17143_-0.18826",11.17143,"Incongruent","-1",0.18826,"down",0,"2035"
"S003","Illusion_Session1",1,27.4175166666667,"1920x937",1.79904,60,"chrome","107.0.0","Windows 10","MullerLyer",4,21,"MullerLyer_23.0000_-0.29056",23,"Incongruent","-1",0.29056,"down",0,"2070"
"S003","Illusion_Session1",1,27.4175166666667,"1920x937",1.79904,60,"chrome","107.0.0","Windows 10","MullerLyer",4,22,"MullerLyer_-5.25714_0.29056",-5.25714,"Congruent","1",0.29056,"up",0,"638"
"S003","Illusion_Session1",1,27.4175166666667,"1920x937",1.79904,60,"chrome","107.0.0","Windows 10","MullerLyer",4,23,"MullerLyer_17.08571_0.29056",17.08571,"Incongruent","1",0.29056,"up",0,"1018"
"S003","Illusion_Session1",1,27.4175166666667,"1920x937",1.79904,60,"chrome","107.0.0","Windows 10","MullerLyer",4,24,"MullerLyer_11.17143_0.10808",11.17143,"Incongruent","1",0.10808,"up",0,"963"
"S003","Illusion_Session1",1,27.4175166666667,"1920x937",1.79904,60,"chrome","107.0.0","Windows 10","MullerLyer",4,25,"MullerLyer_5.25714_0.29056",5.25714,"Incongruent","1",0.29056,"up",0,"756"
"S003","Illusion_Session1",1,27.4175166666667,"1920x937",1.79904,60,"chrome","107.0.0","Windows 10","MullerLyer",4,26,"MullerLyer_17.08571_0.05000",17.08571,"Incongruent","1",0.05,"down",1,"649"
"S003","Illusion_Session1",1,27.4175166666667,"1920x937",1.79904,60,"chrome","107.0.0","Windows 10","MullerLyer",4,27,"MullerLyer_5.25714_0.18826",5.25714,"Incongruent","1",0.18826,"up",0,"675"
"S003","Illusion_Session1",1,27.4175166666667,"1920x937",1.79904,60,"chrome","107.0.0","Windows 10","MullerLyer",4,28,"MullerLyer_11.17143_0.29056",11.17143,"Incongruent","1",0.29056,"up",0,"604"
"S003","Illusion_Session1",1,27.4175166666667,"1920x937",1.79904,60,"chrome","107.0.0","Windows 10","MullerLyer",4,29,"MullerLyer_23.0000_0.29056",23,"Incongruent","1",0.29056,"up",0,"670"
"S003","Illusion_Session1",1,27.4175166666667,"1920x937",1.79904,60,"chrome","107.0.0","Windows 10","MullerLyer",4,30,"MullerLyer_-23.000_-0.10808",-23,"Congruent","-1",0.10808,"down",0,"626"
"S003","Illusion_Session1",1,27.4175166666667,"1920x937",1.79904,60,"chrome","107.0.0","Windows 10","MullerLyer",4,31,"MullerLyer_11.17143_-0.10808",11.17143,"Incongruent","-1",0.10808,"up",1,"852"
"S003","Illusion_Session1",1,27.4175166666667,"1920x937",1.79904,60,"chrome","107.0.0","Windows 10","MullerLyer",4,32,"MullerLyer_11.17143_0.05000",11.17143,"Incongruent","1",0.05,"down",1,"3676"
"S003","Illusion_Session1",1,27.4175166666667,"1920x937",1.79904,60,"chrome","107.0.0","Windows 10","MullerLyer",4,33,"MullerLyer_-11.17143_0.05000",-11.17143,"Congruent","1",0.05,"up",0,"1376"
"S003","Illusion_Session1",1,27.4175166666667,"1920x937",1.79904,60,"chrome","107.0.0","Windows 10","MullerLyer",4,34,"MullerLyer_-17.08571_0.29056",-17.08571,"Congruent","1",0.29056,"up",0,"585"
"S003","Illusion_Session1",1,27.4175166666667,"1920x937",1.79904,60,"chrome","107.0.0","Windows 10","MullerLyer",4,35,"MullerLyer_-11.17143_0.18826",-11.17143,"Congruent","1",0.18826,"up",0,"1314"
"S003","Illusion_Session1",1,27.4175166666667,"1920x937",1.79904,60,"chrome","107.0.0","Windows 10","MullerLyer",4,36,"MullerLyer_5.25714_0.10808",5.25714,"Incongruent","1",0.10808,"down",1,"793"
"S003","Illusion_Session1",1,27.4175166666667,"1920x937",1.79904,60,"chrome","107.0.0","Windows 10","MullerLyer",4,37,"MullerLyer_-23.000_0.29056",-23,"Congruent","1",0.29056,"up",0,"542"
"S003","Illusion_Session1",1,27.4175166666667,"1920x937",1.79904,60,"chrome","107.0.0","Windows 10","MullerLyer",4,38,"MullerLyer_17.08571_-0.29056",17.08571,"Incongruent","-1",0.29056,"down",0,"1100"
"S003","Illusion_Session1",1,27.4175166666667,"1920x937",1.79904,60,"chrome","107.0.0","Windows 10","MullerLyer",4,39,"MullerLyer_-23.000_0.18826",-23,"Congruent","1",0.18826,"up",0,"630"
"S003","Illusion_Session1",1,27.4175166666667,"1920x937",1.79904,60,"chrome","107.0.0","Windows 10","MullerLyer",4,40,"MullerLyer_17.08571_-0.10808",17.08571,"Incongruent","-1",0.10808,"up",1,"877"
"S003","Illusion_Session1",1,27.4175166666667,"1920x937",1.79904,60,"chrome","107.0.0","Windows 10","MullerLyer",4,41,"MullerLyer_-5.25714_0.10808",-5.25714,"Congruent","1",0.10808,"up",0,"770"
"S003","Illusion_Session1",1,27.4175166666667,"1920x937",1.79904,60,"chrome","107.0.0","Windows 10","MullerLyer",4,42,"MullerLyer_-11.17143_0.10808",-11.17143,"Congruent","1",0.10808,"up",0,"920"
"S003","Illusion_Session1",1,27.4175166666667,"1920x937",1.79904,60,"chrome","107.0.0","Windows 10","MullerLyer",4,43,"MullerLyer_-23.000_-0.29056",-23,"Congruent","-1",0.29056,"down",0,"596"
"S003","Illusion_Session1",1,27.4175166666667,"1920x937",1.79904,60,"chrome","107.0.0","Windows 10","MullerLyer",4,44,"MullerLyer_-17.08571_-0.10808",-17.08571,"Congruent","-1",0.10808,"down",0,"696"
"S003","Illusion_Session1",1,27.4175166666667,"1920x937",1.79904,60,"chrome","107.0.0","Windows 10","MullerLyer",4,45,"MullerLyer_-17.08571_0.18826",-17.08571,"Congruent","1",0.18826,"up",0,"719"
"S003","Illusion_Session1",1,27.4175166666667,"1920x937",1.79904,60,"chrome","107.0.0","Windows 10","MullerLyer",4,46,"MullerLyer_-5.25714_-0.29056",-5.25714,"Congruent","-1",0.29056,"down",0,"652"
"S003","Illusion_Session1",1,27.4175166666667,"1920x937",1.79904,60,"chrome","107.0.0","Windows 10","MullerLyer",4,47,"MullerLyer_-23.000_-0.0500",-23,"Congruent","-1",0.05,"down",0,"525"
"S003","Illusion_Session1",1,27.4175166666667,"1920x937",1.79904,60,"chrome","107.0.0","Windows 10","MullerLyer",4,48,"MullerLyer_-5.25714_-0.18826",-5.25714,"Congruent","-1",0.18826,"down",0,"698"
"S003","Illusion_Session1",1,27.4175166666667,"1920x937",1.79904,60,"chrome","107.0.0","Windows 10","MullerLyer",4,49,"MullerLyer_5.25714_0.05000",5.25714,"Incongruent","1",0.05,"up",0,"1275"
"S003","Illusion_Session1",1,27.4175166666667,"1920x937",1.79904,60,"chrome","107.0.0","Windows 10","MullerLyer",4,50,"MullerLyer_11.17143_-0.0500",11.17143,"Incongruent","-1",0.05,"up",1,"1787"
"S003","Illusion_Session1",1,27.4175166666667,"1920x937",1.79904,60,"chrome","107.0.0","Windows 10","MullerLyer",4,51,"MullerLyer_5.25714_-0.10808",5.25714,"Incongruent","-1",0.10808,"up",1,"1250"
"S003","Illusion_Session1",1,27.4175166666667,"1920x937",1.79904,60,"chrome","107.0.0","Windows 10","MullerLyer",4,52,"MullerLyer_-5.25714_0.18826",-5.25714,"Congruent","1",0.18826,"up",0,"603"
"S003","Illusion_Session1",1,27.4175166666667,"1920x937",1.79904,60,"chrome","107.0.0","Windows 10","MullerLyer",4,53,"MullerLyer_-17.08571_0.05000",-17.08571,"Congruent","1",0.05,"up",0,"611"
"S003","Illusion_Session1",1,27.4175166666667,"1920x937",1.79904,60,"chrome","107.0.0","Windows 10","MullerLyer",4,54,"MullerLyer_17.08571_0.18826",17.08571,"Incongruent","1",0.18826,"up",0,"1131"
"S003","Illusion_Session1",1,27.4175166666667,"1920x937",1.79904,60,"chrome","107.0.0","Windows 10","MullerLyer",4,55,"MullerLyer_5.25714_-0.0500",5.25714,"Incongruent","-1",0.05,"up",1,"1174"
"S003","Illusion_Session1",1,27.4175166666667,"1920x937",1.79904,60,"chrome","107.0.0","Windows 10","MullerLyer",4,56,"MullerLyer_-11.17143_-0.18826",-11.17143,"Congruent","-1",0.18826,"down",0,"691"
"S003","Illusion_Session1",1,27.4175166666667,"1920x937",1.79904,60,"chrome","107.0.0","Windows 10","MullerLyer",4,57,"MullerLyer_-23.000_0.05000",-23,"Congruent","1",0.05,"up",0,"579"
"S003","Illusion_Session1",1,27.4175166666667,"1920x937",1.79904,60,"chrome","107.0.0","Windows 10","MullerLyer",4,58,"MullerLyer_17.08571_-0.18826",17.08571,"Incongruent","-1",0.18826,"up",1,"700"
"S003","Illusion_Session1",1,27.4175166666667,"1920x937",1.79904,60,"chrome","107.0.0","Windows 10","MullerLyer",4,59,"MullerLyer_-23.000_0.10808",-23,"Congruent","1",0.10808,"up",0,"1045"
"S003","Illusion_Session1",1,27.4175166666667,"1920x937",1.79904,60,"chrome","107.0.0","Windows 10","MullerLyer",4,60,"MullerLyer_23.0000_0.05000",23,"Incongruent","1",0.05,"down",1,"718"
"S003","Illusion_Session1",1,27.4175166666667,"1920x937",1.79904,60,"chrome","107.0.0","Windows 10","MullerLyer",4,61,"MullerLyer_-5.25714_-0.0500",-5.25714,"Congruent","-1",0.05,"down",0,"794"
"S003","Illusion_Session1",1,27.4175166666667,"1920x937",1.79904,60,"chrome","107.0.0","Windows 10","MullerLyer",4,62,"MullerLyer_-17.08571_0.10808",-17.08571,"Congruent","1",0.10808,"up",0,"647"
"S003","Illusion_Session1",1,27.4175166666667,"1920x937",1.79904,60,"chrome","107.0.0","Windows 10","MullerLyer",4,63,"MullerLyer_-11.17143_-0.10808",-11.17143,"Congruent","-1",0.10808,"down",0,"693"
"S003","Illusion_Session1",1,27.4175166666667,"1920x937",1.79904,60,"chrome","107.0.0","Windows 10","MullerLyer",4,64,"MullerLyer_-11.17143_-0.0500",-11.17143,"Congruent","-1",0.05,"down",0,"660"
"S003","Illusion_Session1",1,27.4175166666667,"1920x937",1.79904,60,"chrome","107.0.0","Windows 10","Ebbinghaus",5,1,"Ebbinghaus_-0.74286_-0.0900",-0.74286,"Congruent","-1",0.09,"right",0,"1826"
"S003","Illusion_Session1",1,27.4175166666667,"1920x937",1.79904,60,"chrome","107.0.0","Windows 10","Ebbinghaus",5,2,"Ebbinghaus_-0.22857_0.09000",-0.22857,"Congruent","1",0.09,"right",1,"1639"
"S003","Illusion_Session1",1,27.4175166666667,"1920x937",1.79904,60,"chrome","107.0.0","Windows 10","Ebbinghaus",5,3,"Ebbinghaus_-1.0000_-0.24643",-1,"Congruent","-1",0.24643,"right",0,"721"
"S003","Illusion_Session1",1,27.4175166666667,"1920x937",1.79904,60,"chrome","107.0.0","Windows 10","Ebbinghaus",5,4,"Ebbinghaus_-1.0000_0.09000",-1,"Congruent","1",0.09,"left",0,"568"
"S003","Illusion_Session1",1,27.4175166666667,"1920x937",1.79904,60,"chrome","107.0.0","Windows 10","Ebbinghaus",5,5,"Ebbinghaus_1.00000_-0.24643",1,"Incongruent","-1",0.24643,"left",1,"916"
"S003","Illusion_Session1",1,27.4175166666667,"1920x937",1.79904,60,"chrome","107.0.0","Windows 10","Ebbinghaus",5,6,"Ebbinghaus_1.00000_0.18571",1,"Incongruent","1",0.18571,"right",1,"1552"
"S003","Illusion_Session1",1,27.4175166666667,"1920x937",1.79904,60,"chrome","107.0.0","Windows 10","Ebbinghaus",5,7,"Ebbinghaus_0.74286_0.24643",0.74286,"Incongruent","1",0.24643,"left",0,"871"
"S003","Illusion_Session1",1,27.4175166666667,"1920x937",1.79904,60,"chrome","107.0.0","Windows 10","Ebbinghaus",5,8,"Ebbinghaus_-0.74286_0.13357",-0.74286,"Congruent","1",0.13357,"left",0,"902"
"S003","Illusion_Session1",1,27.4175166666667,"1920x937",1.79904,60,"chrome","107.0.0","Windows 10","Ebbinghaus",5,9,"Ebbinghaus_1.00000_0.24643",1,"Incongruent","1",0.24643,"left",0,"933"
"S003","Illusion_Session1",1,27.4175166666667,"1920x937",1.79904,60,"chrome","107.0.0","Windows 10","Ebbinghaus",5,10,"Ebbinghaus_-0.48571_0.18571",-0.48571,"Congruent","1",0.18571,"left",0,"884"
"S003","Illusion_Session1",1,27.4175166666667,"1920x937",1.79904,60,"chrome","107.0.0","Windows 10","Ebbinghaus",5,11,"Ebbinghaus_-0.74286_-0.18571",-0.74286,"Congruent","-1",0.18571,"right",0,"691"
"S003","Illusion_Session1",1,27.4175166666667,"1920x937",1.79904,60,"chrome","107.0.0","Windows 10","Ebbinghaus",5,12,"Ebbinghaus_0.74286_-0.18571",0.74286,"Incongruent","-1",0.18571,"left",1,"745"
"S003","Illusion_Session1",1,27.4175166666667,"1920x937",1.79904,60,"chrome","107.0.0","Windows 10","Ebbinghaus",5,13,"Ebbinghaus_0.48571_-0.0900",0.48571,"Incongruent","-1",0.09,"right",0,"1173"
"S003","Illusion_Session1",1,27.4175166666667,"1920x937",1.79904,60,"chrome","107.0.0","Windows 10","Ebbinghaus",5,14,"Ebbinghaus_0.48571_-0.13357",0.48571,"Incongruent","-1",0.13357,"left",1,"807"
"S003","Illusion_Session1",1,27.4175166666667,"1920x937",1.79904,60,"chrome","107.0.0","Windows 10","Ebbinghaus",5,15,"Ebbinghaus_0.48571_0.13357",0.48571,"Incongruent","1",0.13357,"right",1,"1490"
"S003","Illusion_Session1",1,27.4175166666667,"1920x937",1.79904,60,"chrome","107.0.0","Windows 10","Ebbinghaus",5,16,"Ebbinghaus_0.48571_0.09000",0.48571,"Incongruent","1",0.09,"left",0,"659"
"S003","Illusion_Session1",1,27.4175166666667,"1920x937",1.79904,60,"chrome","107.0.0","Windows 10","Ebbinghaus",5,17,"Ebbinghaus_0.22857_-0.24643",0.22857,"Incongruent","-1",0.24643,"right",0,"640"
"S003","Illusion_Session1",1,27.4175166666667,"1920x937",1.79904,60,"chrome","107.0.0","Windows 10","Ebbinghaus",5,18,"Ebbinghaus_-0.48571_-0.18571",-0.48571,"Congruent","-1",0.18571,"right",0,"759"
"S003","Illusion_Session1",1,27.4175166666667,"1920x937",1.79904,60,"chrome","107.0.0","Windows 10","Ebbinghaus",5,19,"Ebbinghaus_0.48571_0.18571",0.48571,"Incongruent","1",0.18571,"left",0,"833"
"S003","Illusion_Session1",1,27.4175166666667,"1920x937",1.79904,60,"chrome","107.0.0","Windows 10","Ebbinghaus",5,20,"Ebbinghaus_0.74286_0.18571",0.74286,"Incongruent","1",0.18571,"left",0,"915"
"S003","Illusion_Session1",1,27.4175166666667,"1920x937",1.79904,60,"chrome","107.0.0","Windows 10","Ebbinghaus",5,21,"Ebbinghaus_-0.22857_-0.0900",-0.22857,"Congruent","-1",0.09,"right",0,"772"
"S003","Illusion_Session1",1,27.4175166666667,"1920x937",1.79904,60,"chrome","107.0.0","Windows 10","Ebbinghaus",5,22,"Ebbinghaus_-0.22857_-0.13357",-0.22857,"Congruent","-1",0.13357,"right",0,"621"
"S003","Illusion_Session1",1,27.4175166666667,"1920x937",1.79904,60,"chrome","107.0.0","Windows 10","Ebbinghaus",5,23,"Ebbinghaus_-0.48571_0.09000",-0.48571,"Congruent","1",0.09,"left",0,"854"
"S003","Illusion_Session1",1,27.4175166666667,"1920x937",1.79904,60,"chrome","107.0.0","Windows 10","Ebbinghaus",5,24,"Ebbinghaus_0.22857_0.09000",0.22857,"Incongruent","1",0.09,"left",0,"1475"
"S003","Illusion_Session1",1,27.4175166666667,"1920x937",1.79904,60,"chrome","107.0.0","Windows 10","Ebbinghaus",5,25,"Ebbinghaus_1.00000_-0.0900",1,"Incongruent","-1",0.09,"left",1,"878"
"S003","Illusion_Session1",1,27.4175166666667,"1920x937",1.79904,60,"chrome","107.0.0","Windows 10","Ebbinghaus",5,26,"Ebbinghaus_0.74286_-0.13357",0.74286,"Incongruent","-1",0.13357,"right",0,"2884"
"S003","Illusion_Session1",1,27.4175166666667,"1920x937",1.79904,60,"chrome","107.0.0","Windows 10","Ebbinghaus",5,27,"Ebbinghaus_-0.48571_-0.13357",-0.48571,"Congruent","-1",0.13357,"right",0,"1031"
"S003","Illusion_Session1",1,27.4175166666667,"1920x937",1.79904,60,"chrome","107.0.0","Windows 10","Ebbinghaus",5,28,"Ebbinghaus_0.22857_-0.18571",0.22857,"Incongruent","-1",0.18571,"right",0,"984"
"S003","Illusion_Session1",1,27.4175166666667,"1920x937",1.79904,60,"chrome","107.0.0","Windows 10","Ebbinghaus",5,29,"Ebbinghaus_-0.22857_0.24643",-0.22857,"Congruent","1",0.24643,"left",0,"523"
"S003","Illusion_Session1",1,27.4175166666667,"1920x937",1.79904,60,"chrome","107.0.0","Windows 10","Ebbinghaus",5,30,"Ebbinghaus_-1.0000_0.13357",-1,"Congruent","1",0.13357,"left",0,"645"
"S003","Illusion_Session1",1,27.4175166666667,"1920x937",1.79904,60,"chrome","107.0.0","Windows 10","Ebbinghaus",5,31,"Ebbinghaus_0.74286_0.09000",0.74286,"Incongruent","1",0.09,"right",1,"860"
"S003","Illusion_Session1",1,27.4175166666667,"1920x937",1.79904,60,"chrome","107.0.0","Windows 10","Ebbinghaus",5,32,"Ebbinghaus_0.48571_0.24643",0.48571,"Incongruent","1",0.24643,"left",0,"599"
"S003","Illusion_Session1",1,27.4175166666667,"1920x937",1.79904,60,"chrome","107.0.0","Windows 10","Ebbinghaus",5,33,"Ebbinghaus_-0.22857_-0.24643",-0.22857,"Congruent","-1",0.24643,"right",0,"542"
"S003","Illusion_Session1",1,27.4175166666667,"1920x937",1.79904,60,"chrome","107.0.0","Windows 10","Ebbinghaus",5,34,"Ebbinghaus_0.22857_-0.13357",0.22857,"Incongruent","-1",0.13357,"right",0,"652"
"S003","Illusion_Session1",1,27.4175166666667,"1920x937",1.79904,60,"chrome","107.0.0","Windows 10","Ebbinghaus",5,35,"Ebbinghaus_-1.0000_0.18571",-1,"Congruent","1",0.18571,"left",0,"599"
"S003","Illusion_Session1",1,27.4175166666667,"1920x937",1.79904,60,"chrome","107.0.0","Windows 10","Ebbinghaus",5,36,"Ebbinghaus_1.00000_-0.13357",1,"Incongruent","-1",0.13357,"left",1,"814"
"S003","Illusion_Session1",1,27.4175166666667,"1920x937",1.79904,60,"chrome","107.0.0","Windows 10","Ebbinghaus",5,37,"Ebbinghaus_-0.74286_-0.24643",-0.74286,"Congruent","-1",0.24643,"right",0,"681"
"S003","Illusion_Session1",1,27.4175166666667,"1920x937",1.79904,60,"chrome","107.0.0","Windows 10","Ebbinghaus",5,38,"Ebbinghaus_0.74286_0.13357",0.74286,"Incongruent","1",0.13357,"right",1,"858"
"S003","Illusion_Session1",1,27.4175166666667,"1920x937",1.79904,60,"chrome","107.0.0","Windows 10","Ebbinghaus",5,39,"Ebbinghaus_-1.0000_0.24643",-1,"Congruent","1",0.24643,"left",0,"667"
"S003","Illusion_Session1",1,27.4175166666667,"1920x937",1.79904,60,"chrome","107.0.0","Windows 10","Ebbinghaus",5,40,"Ebbinghaus_0.48571_-0.18571",0.48571,"Incongruent","-1",0.18571,"right",0,"545"
"S003","Illusion_Session1",1,27.4175166666667,"1920x937",1.79904,60,"chrome","107.0.0","Windows 10","Ebbinghaus",5,41,"Ebbinghaus_-0.48571_-0.24643",-0.48571,"Congruent","-1",0.24643,"right",0,"738"
"S003","Illusion_Session1",1,27.4175166666667,"1920x937",1.79904,60,"chrome","107.0.0","Windows 10","Ebbinghaus",5,42,"Ebbinghaus_0.74286_-0.24643",0.74286,"Incongruent","-1",0.24643,"right",0,"626"
"S003","Illusion_Session1",1,27.4175166666667,"1920x937",1.79904,60,"chrome","107.0.0","Windows 10","Ebbinghaus",5,43,"Ebbinghaus_0.74286_-0.0900",0.74286,"Incongruent","-1",0.09,"left",1,"1025"
"S003","Illusion_Session1",1,27.4175166666667,"1920x937",1.79904,60,"chrome","107.0.0","Windows 10","Ebbinghaus",5,44,"Ebbinghaus_-0.74286_0.09000",-0.74286,"Congruent","1",0.09,"left",0,"1158"
"S003","Illusion_Session1",1,27.4175166666667,"1920x937",1.79904,60,"chrome","107.0.0","Windows 10","Ebbinghaus",5,45,"Ebbinghaus_0.22857_0.18571",0.22857,"Incongruent","1",0.18571,"left",0,"998"
"S003","Illusion_Session1",1,27.4175166666667,"1920x937",1.79904,60,"chrome","107.0.0","Windows 10","Ebbinghaus",5,46,"Ebbinghaus_0.22857_-0.0900",0.22857,"Incongruent","-1",0.09,"left",1,"1181"
"S003","Illusion_Session1",1,27.4175166666667,"1920x937",1.79904,60,"chrome","107.0.0","Windows 10","Ebbinghaus",5,47,"Ebbinghaus_1.00000_0.09000",1,"Incongruent","1",0.09,"right",1,"701"
"S003","Illusion_Session1",1,27.4175166666667,"1920x937",1.79904,60,"chrome","107.0.0","Windows 10","Ebbinghaus",5,48,"Ebbinghaus_0.22857_0.13357",0.22857,"Incongruent","1",0.13357,"left",0,"1624"
"S003","Illusion_Session1",1,27.4175166666667,"1920x937",1.79904,60,"chrome","107.0.0","Windows 10","Ebbinghaus",5,49,"Ebbinghaus_0.22857_0.24643",0.22857,"Incongruent","1",0.24643,"left",0,"641"
"S003","Illusion_Session1",1,27.4175166666667,"1920x937",1.79904,60,"chrome","107.0.0","Windows 10","Ebbinghaus",5,50,"Ebbinghaus_-0.22857_0.13357",-0.22857,"Congruent","1",0.13357,"left",0,"724"
"S003","Illusion_Session1",1,27.4175166666667,"1920x937",1.79904,60,"chrome","107.0.0","Windows 10","Ebbinghaus",5,51,"Ebbinghaus_-0.74286_0.24643",-0.74286,"Congruent","1",0.24643,"left",0,"639"
"S003","Illusion_Session1",1,27.4175166666667,"1920x937",1.79904,60,"chrome","107.0.0","Windows 10","Ebbinghaus",5,52,"Ebbinghaus_0.48571_-0.24643",0.48571,"Incongruent","-1",0.24643,"right",0,"650"
"S003","Illusion_Session1",1,27.4175166666667,"1920x937",1.79904,60,"chrome","107.0.0","Windows 10","Ebbinghaus",5,53,"Ebbinghaus_-0.74286_-0.13357",-0.74286,"Congruent","-1",0.13357,"right",0,"659"
"S003","Illusion_Session1",1,27.4175166666667,"1920x937",1.79904,60,"chrome","107.0.0","Windows 10","Ebbinghaus",5,54,"Ebbinghaus_-0.74286_0.18571",-0.74286,"Congruent","1",0.18571,"left",0,"631"
"S003","Illusion_Session1",1,27.4175166666667,"1920x937",1.79904,60,"chrome","107.0.0","Windows 10","Ebbinghaus",5,55,"Ebbinghaus_-1.0000_-0.13357",-1,"Congruent","-1",0.13357,"right",0,"670"
"S003","Illusion_Session1",1,27.4175166666667,"1920x937",1.79904,60,"chrome","107.0.0","Windows 10","Ebbinghaus",5,56,"Ebbinghaus_-0.48571_-0.0900",-0.48571,"Congruent","-1",0.09,"right",0,"776"
"S003","Illusion_Session1",1,27.4175166666667,"1920x937",1.79904,60,"chrome","107.0.0","Windows 10","Ebbinghaus",5,57,"Ebbinghaus_-0.22857_-0.18571",-0.22857,"Congruent","-1",0.18571,"right",0,"649"
"S003","Illusion_Session1",1,27.4175166666667,"1920x937",1.79904,60,"chrome","107.0.0","Windows 10","Ebbinghaus",5,58,"Ebbinghaus_1.00000_-0.18571",1,"Incongruent","-1",0.18571,"left",1,"925"
"S003","Illusion_Session1",1,27.4175166666667,"1920x937",1.79904,60,"chrome","107.0.0","Windows 10","Ebbinghaus",5,59,"Ebbinghaus_-1.0000_-0.0900",-1,"Congruent","-1",0.09,"right",0,"750"
"S003","Illusion_Session1",1,27.4175166666667,"1920x937",1.79904,60,"chrome","107.0.0","Windows 10","Ebbinghaus",5,60,"Ebbinghaus_1.00000_0.13357",1,"Incongruent","1",0.13357,"right",1,"851"
"S003","Illusion_Session1",1,27.4175166666667,"1920x937",1.79904,60,"chrome","107.0.0","Windows 10","Ebbinghaus",5,61,"Ebbinghaus_-0.48571_0.13357",-0.48571,"Congruent","1",0.13357,"left",0,"672"
"S003","Illusion_Session1",1,27.4175166666667,"1920x937",1.79904,60,"chrome","107.0.0","Windows 10","Ebbinghaus",5,62,"Ebbinghaus_-1.0000_-0.18571",-1,"Congruent","-1",0.18571,"right",0,"607"
"S003","Illusion_Session1",1,27.4175166666667,"1920x937",1.79904,60,"chrome","107.0.0","Windows 10","Ebbinghaus",5,63,"Ebbinghaus_-0.48571_0.24643",-0.48571,"Congruent","1",0.24643,"left",0,"656"
"S003","Illusion_Session1",1,27.4175166666667,"1920x937",1.79904,60,"chrome","107.0.0","Windows 10","Ebbinghaus",5,64,"Ebbinghaus_-0.22857_0.18571",-0.22857,"Congruent","1",0.18571,"left",0,"2020"
"S003","Illusion_Session1",1,27.4175166666667,"1920x937",1.79904,60,"chrome","107.0.0","Windows 10","VerticalHorizontal",6,1,"VerticalHorizontal_-16.02857_-0.08717",-16.02857,"Congruent","-1",0.08717,"right",0,"687"
"S003","Illusion_Session1",1,27.4175166666667,"1920x937",1.79904,60,"chrome","107.0.0","Windows 10","VerticalHorizontal",6,2,"VerticalHorizontal_-7.54286_-0.1923",-7.54286,"Congruent","-1",0.1923,"right",0,"1092"
"S003","Illusion_Session1",1,27.4175166666667,"1920x937",1.79904,60,"chrome","107.0.0","Windows 10","VerticalHorizontal",6,3,"VerticalHorizontal_-16.02857_-0.1346",-16.02857,"Congruent","-1",0.1346,"right",0,"647"
"S003","Illusion_Session1",1,27.4175166666667,"1920x937",1.79904,60,"chrome","107.0.0","Windows 10","VerticalHorizontal",6,4,"VerticalHorizontal_33.0000_-0.1923",33,"Incongruent","-1",0.1923,"left",1,"852"
"S003","Illusion_Session1",1,27.4175166666667,"1920x937",1.79904,60,"chrome","107.0.0","Windows 10","VerticalHorizontal",6,5,"VerticalHorizontal_24.51429_-0.08717",24.51429,"Incongruent","-1",0.08717,"left",1,"514"
"S003","Illusion_Session1",1,27.4175166666667,"1920x937",1.79904,60,"chrome","107.0.0","Windows 10","VerticalHorizontal",6,6,"VerticalHorizontal_24.51429_-0.1346",24.51429,"Incongruent","-1",0.1346,"right",0,"918"
"S003","Illusion_Session1",1,27.4175166666667,"1920x937",1.79904,60,"chrome","107.0.0","Windows 10","VerticalHorizontal",6,7,"VerticalHorizontal_7.54286_0.08717",7.54286,"Incongruent","1",0.08717,"left",0,"540"
"S003","Illusion_Session1",1,27.4175166666667,"1920x937",1.79904,60,"chrome","107.0.0","Windows 10","VerticalHorizontal",6,8,"VerticalHorizontal_16.02857_0.08717",16.02857,"Incongruent","1",0.08717,"left",0,"562"
"S003","Illusion_Session1",1,27.4175166666667,"1920x937",1.79904,60,"chrome","107.0.0","Windows 10","VerticalHorizontal",6,9,"VerticalHorizontal_-33.000_0.13460",-33,"Congruent","1",0.1346,"left",0,"404"
"S003","Illusion_Session1",1,27.4175166666667,"1920x937",1.79904,60,"chrome","107.0.0","Windows 10","VerticalHorizontal",6,10,"VerticalHorizontal_-33.000_-0.1346",-33,"Congruent","-1",0.1346,"right",0,"591"
"S003","Illusion_Session1",1,27.4175166666667,"1920x937",1.79904,60,"chrome","107.0.0","Windows 10","VerticalHorizontal",6,11,"VerticalHorizontal_-7.54286_-0.08717",-7.54286,"Congruent","-1",0.08717,"right",0,"924"
"S003","Illusion_Session1",1,27.4175166666667,"1920x937",1.79904,60,"chrome","107.0.0","Windows 10","VerticalHorizontal",6,12,"VerticalHorizontal_33.0000_-0.0500",33,"Incongruent","-1",0.05,"left",1,"558"
"S003","Illusion_Session1",1,27.4175166666667,"1920x937",1.79904,60,"chrome","107.0.0","Windows 10","VerticalHorizontal",6,13,"VerticalHorizontal_24.51429_0.05000",24.51429,"Incongruent","1",0.05,"right",1,"602"
"S003","Illusion_Session1",1,27.4175166666667,"1920x937",1.79904,60,"chrome","107.0.0","Windows 10","VerticalHorizontal",6,14,"VerticalHorizontal_-33.000_0.05000",-33,"Congruent","1",0.05,"left",0,"527"
"S003","Illusion_Session1",1,27.4175166666667,"1920x937",1.79904,60,"chrome","107.0.0","Windows 10","VerticalHorizontal",6,15,"VerticalHorizontal_33.0000_0.05000",33,"Incongruent","1",0.05,"right",1,"1501"
"S003","Illusion_Session1",1,27.4175166666667,"1920x937",1.79904,60,"chrome","107.0.0","Windows 10","VerticalHorizontal",6,16,"VerticalHorizontal_-33.000_0.08717",-33,"Congruent","1",0.08717,"left",0,"509"
"S003","Illusion_Session1",1,27.4175166666667,"1920x937",1.79904,60,"chrome","107.0.0","Windows 10","VerticalHorizontal",6,17,"VerticalHorizontal_7.54286_-0.1346",7.54286,"Incongruent","-1",0.1346,"left",1,"741"
"S003","Illusion_Session1",1,27.4175166666667,"1920x937",1.79904,60,"chrome","107.0.0","Windows 10","VerticalHorizontal",6,18,"VerticalHorizontal_-7.54286_0.08717",-7.54286,"Congruent","1",0.08717,"left",0,"574"
"S003","Illusion_Session1",1,27.4175166666667,"1920x937",1.79904,60,"chrome","107.0.0","Windows 10","VerticalHorizontal",6,19,"VerticalHorizontal_7.54286_-0.0500",7.54286,"Incongruent","-1",0.05,"left",1,"811"
"S003","Illusion_Session1",1,27.4175166666667,"1920x937",1.79904,60,"chrome","107.0.0","Windows 10","VerticalHorizontal",6,20,"VerticalHorizontal_24.51429_0.13460",24.51429,"Incongruent","1",0.1346,"right",1,"602"
"S003","Illusion_Session1",1,27.4175166666667,"1920x937",1.79904,60,"chrome","107.0.0","Windows 10","VerticalHorizontal",6,21,"VerticalHorizontal_33.0000_-0.1346",33,"Incongruent","-1",0.1346,"left",1,"875"
"S003","Illusion_Session1",1,27.4175166666667,"1920x937",1.79904,60,"chrome","107.0.0","Windows 10","VerticalHorizontal",6,22,"VerticalHorizontal_-7.54286_0.19230",-7.54286,"Congruent","1",0.1923,"left",0,"571"
"S003","Illusion_Session1",1,27.4175166666667,"1920x937",1.79904,60,"chrome","107.0.0","Windows 10","VerticalHorizontal",6,23,"VerticalHorizontal_-24.51429_0.05000",-24.51429,"Congruent","1",0.05,"left",0,"436"
"S003","Illusion_Session1",1,27.4175166666667,"1920x937",1.79904,60,"chrome","107.0.0","Windows 10","VerticalHorizontal",6,24,"VerticalHorizontal_16.02857_-0.1346",16.02857,"Incongruent","-1",0.1346,"right",0,"643"
"S003","Illusion_Session1",1,27.4175166666667,"1920x937",1.79904,60,"chrome","107.0.0","Windows 10","VerticalHorizontal",6,25,"VerticalHorizontal_-7.54286_0.05000",-7.54286,"Congruent","1",0.05,"right",1,"757"
"S003","Illusion_Session1",1,27.4175166666667,"1920x937",1.79904,60,"chrome","107.0.0","Windows 10","VerticalHorizontal",6,26,"VerticalHorizontal_33.0000_-0.08717",33,"Incongruent","-1",0.08717,"right",0,"642"
"S003","Illusion_Session1",1,27.4175166666667,"1920x937",1.79904,60,"chrome","107.0.0","Windows 10","VerticalHorizontal",6,27,"VerticalHorizontal_-7.54286_-0.1346",-7.54286,"Congruent","-1",0.1346,"right",0,"586"
"S003","Illusion_Session1",1,27.4175166666667,"1920x937",1.79904,60,"chrome","107.0.0","Windows 10","VerticalHorizontal",6,28,"VerticalHorizontal_24.51429_0.08717",24.51429,"Incongruent","1",0.08717,"right",1,"532"
"S003","Illusion_Session1",1,27.4175166666667,"1920x937",1.79904,60,"chrome","107.0.0","Windows 10","VerticalHorizontal",6,29,"VerticalHorizontal_-24.51429_-0.0500",-24.51429,"Congruent","-1",0.05,"right",0,"429"
"S003","Illusion_Session1",1,27.4175166666667,"1920x937",1.79904,60,"chrome","107.0.0","Windows 10","VerticalHorizontal",6,30,"VerticalHorizontal_-16.02857_0.19230",-16.02857,"Congruent","1",0.1923,"right",1,"373"
"S003","Illusion_Session1",1,27.4175166666667,"1920x937",1.79904,60,"chrome","107.0.0","Windows 10","VerticalHorizontal",6,31,"VerticalHorizontal_-24.51429_0.13460",-24.51429,"Congruent","1",0.1346,"left",0,"455"
"S003","Illusion_Session1",1,27.4175166666667,"1920x937",1.79904,60,"chrome","107.0.0","Windows 10","VerticalHorizontal",6,32,"VerticalHorizontal_-24.51429_-0.1346",-24.51429,"Congruent","-1",0.1346,"right",0,"630"
"S003","Illusion_Session1",1,27.4175166666667,"1920x937",1.79904,60,"chrome","107.0.0","Windows 10","VerticalHorizontal",6,33,"VerticalHorizontal_-24.51429_0.08717",-24.51429,"Congruent","1",0.08717,"left",0,"550"
"S003","Illusion_Session1",1,27.4175166666667,"1920x937",1.79904,60,"chrome","107.0.0","Windows 10","VerticalHorizontal",6,34,"VerticalHorizontal_-33.000_-0.0500",-33,"Congruent","-1",0.05,"right",0,"651"
"S003","Illusion_Session1",1,27.4175166666667,"1920x937",1.79904,60,"chrome","107.0.0","Windows 10","VerticalHorizontal",6,35,"VerticalHorizontal_7.54286_0.13460",7.54286,"Incongruent","1",0.1346,"left",0,"603"
"S003","Illusion_Session1",1,27.4175166666667,"1920x937",1.79904,60,"chrome","107.0.0","Windows 10","VerticalHorizontal",6,36,"VerticalHorizontal_-24.51429_-0.1923",-24.51429,"Congruent","-1",0.1923,"right",0,"929"
"S003","Illusion_Session1",1,27.4175166666667,"1920x937",1.79904,60,"chrome","107.0.0","Windows 10","VerticalHorizontal",6,37,"VerticalHorizontal_16.02857_0.19230",16.02857,"Incongruent","1",0.1923,"left",0,"557"
"S003","Illusion_Session1",1,27.4175166666667,"1920x937",1.79904,60,"chrome","107.0.0","Windows 10","VerticalHorizontal",6,38,"VerticalHorizontal_-33.000_0.19230",-33,"Congruent","1",0.1923,"left",0,"563"
"S003","Illusion_Session1",1,27.4175166666667,"1920x937",1.79904,60,"chrome","107.0.0","Windows 10","VerticalHorizontal",6,39,"VerticalHorizontal_-16.02857_-0.0500",-16.02857,"Congruent","-1",0.05,"right",0,"1019"
"S003","Illusion_Session1",1,27.4175166666667,"1920x937",1.79904,60,"chrome","107.0.0","Windows 10","VerticalHorizontal",6,40,"VerticalHorizontal_7.54286_0.05000",7.54286,"Incongruent","1",0.05,"right",1,"496"
"S003","Illusion_Session1",1,27.4175166666667,"1920x937",1.79904,60,"chrome","107.0.0","Windows 10","VerticalHorizontal",6,41,"VerticalHorizontal_-24.51429_0.19230",-24.51429,"Congruent","1",0.1923,"left",0,"526"
"S003","Illusion_Session1",1,27.4175166666667,"1920x937",1.79904,60,"chrome","107.0.0","Windows 10","VerticalHorizontal",6,42,"VerticalHorizontal_-33.000_-0.1923",-33,"Congruent","-1",0.1923,"right",0,"491"
"S003","Illusion_Session1",1,27.4175166666667,"1920x937",1.79904,60,"chrome","107.0.0","Windows 10","VerticalHorizontal",6,43,"VerticalHorizontal_16.02857_0.05000",16.02857,"Incongruent","1",0.05,"left",0,"639"
"S003","Illusion_Session1",1,27.4175166666667,"1920x937",1.79904,60,"chrome","107.0.0","Windows 10","VerticalHorizontal",6,44,"VerticalHorizontal_7.54286_-0.08717",7.54286,"Incongruent","-1",0.08717,"right",0,"626"
"S003","Illusion_Session1",1,27.4175166666667,"1920x937",1.79904,60,"chrome","107.0.0","Windows 10","VerticalHorizontal",6,45,"VerticalHorizontal_24.51429_0.19230",24.51429,"Incongruent","1",0.1923,"left",0,"577"
"S003","Illusion_Session1",1,27.4175166666667,"1920x937",1.79904,60,"chrome","107.0.0","Windows 10","VerticalHorizontal",6,46,"VerticalHorizontal_-7.54286_0.13460",-7.54286,"Congruent","1",0.1346,"left",0,"463"
"S003","Illusion_Session1",1,27.4175166666667,"1920x937",1.79904,60,"chrome","107.0.0","Windows 10","VerticalHorizontal",6,47,"VerticalHorizontal_16.02857_-0.08717",16.02857,"Incongruent","-1",0.08717,"right",0,"824"
"S003","Illusion_Session1",1,27.4175166666667,"1920x937",1.79904,60,"chrome","107.0.0","Windows 10","VerticalHorizontal",6,48,"VerticalHorizontal_-16.02857_0.13460",-16.02857,"Congruent","1",0.1346,"left",0,"485"
"S003","Illusion_Session1",1,27.4175166666667,"1920x937",1.79904,60,"chrome","107.0.0","Windows 10","VerticalHorizontal",6,49,"VerticalHorizontal_33.0000_0.19230",33,"Incongruent","1",0.1923,"left",0,"561"
"S003","Illusion_Session1",1,27.4175166666667,"1920x937",1.79904,60,"chrome","107.0.0","Windows 10","VerticalHorizontal",6,50,"VerticalHorizontal_-16.02857_0.08717",-16.02857,"Congruent","1",0.08717,"left",0,"566"
"S003","Illusion_Session1",1,27.4175166666667,"1920x937",1.79904,60,"chrome","107.0.0","Windows 10","VerticalHorizontal",6,51,"VerticalHorizontal_7.54286_0.19230",7.54286,"Incongruent","1",0.1923,"left",0,"484"
"S003","Illusion_Session1",1,27.4175166666667,"1920x937",1.79904,60,"chrome","107.0.0","Windows 10","VerticalHorizontal",6,52,"VerticalHorizontal_-16.02857_-0.1923",-16.02857,"Congruent","-1",0.1923,"right",0,"558"
"S003","Illusion_Session1",1,27.4175166666667,"1920x937",1.79904,60,"chrome","107.0.0","Windows 10","VerticalHorizontal",6,53,"VerticalHorizontal_24.51429_-0.0500",24.51429,"Incongruent","-1",0.05,"left",1,"510"
"S003","Illusion_Session1",1,27.4175166666667,"1920x937",1.79904,60,"chrome","107.0.0","Windows 10","VerticalHorizontal",6,54,"VerticalHorizontal_16.02857_0.13460",16.02857,"Incongruent","1",0.1346,"left",0,"597"
"S003","Illusion_Session1",1,27.4175166666667,"1920x937",1.79904,60,"chrome","107.0.0","Windows 10","VerticalHorizontal",6,55,"VerticalHorizontal_-16.02857_0.05000",-16.02857,"Congruent","1",0.05,"left",0,"661"
"S003","Illusion_Session1",1,27.4175166666667,"1920x937",1.79904,60,"chrome","107.0.0","Windows 10","VerticalHorizontal",6,56,"VerticalHorizontal_33.0000_0.08717",33,"Incongruent","1",0.08717,"right",1,"630"
"S003","Illusion_Session1",1,27.4175166666667,"1920x937",1.79904,60,"chrome","107.0.0","Windows 10","VerticalHorizontal",6,57,"VerticalHorizontal_7.54286_-0.1923",7.54286,"Incongruent","-1",0.1923,"right",0,"628"
"S003","Illusion_Session1",1,27.4175166666667,"1920x937",1.79904,60,"chrome","107.0.0","Windows 10","VerticalHorizontal",6,58,"VerticalHorizontal_-33.000_-0.08717",-33,"Congruent","-1",0.08717,"right",0,"532"
"S003","Illusion_Session1",1,27.4175166666667,"1920x937",1.79904,60,"chrome","107.0.0","Windows 10","VerticalHorizontal",6,59,"VerticalHorizontal_-7.54286_-0.0500",-7.54286,"Congruent","-1",0.05,"right",0,"1176"
"S003","Illusion_Session1",1,27.4175166666667,"1920x937",1.79904,60,"chrome","107.0.0","Windows 10","VerticalHorizontal",6,60,"VerticalHorizontal_-24.51429_-0.08717",-24.51429,"Congruent","-1",0.08717,"right",0,"621"
"S003","Illusion_Session1",1,27.4175166666667,"1920x937",1.79904,60,"chrome","107.0.0","Windows 10","VerticalHorizontal",6,61,"VerticalHorizontal_16.02857_-0.0500",16.02857,"Incongruent","-1",0.05,"right",0,"891"
"S003","Illusion_Session1",1,27.4175166666667,"1920x937",1.79904,60,"chrome","107.0.0","Windows 10","VerticalHorizontal",6,62,"VerticalHorizontal_24.51429_-0.1923",24.51429,"Incongruent","-1",0.1923,"left",1,"612"
"S003","Illusion_Session1",1,27.4175166666667,"1920x937",1.79904,60,"chrome","107.0.0","Windows 10","VerticalHorizontal",6,63,"VerticalHorizontal_16.02857_-0.1923",16.02857,"Incongruent","-1",0.1923,"right",0,"857"
"S003","Illusion_Session1",1,27.4175166666667,"1920x937",1.79904,60,"chrome","107.0.0","Windows 10","VerticalHorizontal",6,64,"VerticalHorizontal_33.0000_0.13460",33,"Incongruent","1",0.1346,"left",0,"644"
"S002","Illusion_Session1",2,38.99245,"1517x721",1.093757,61.58,"chrome","107.0.0","Windows 10","MullerLyer",1,19,"MullerLyer_-11.17143_0.18826",-11.17143,"Congruent","1",0.18826,"up",0,"655"
"S002","Illusion_Session1",2,38.99245,"1517x721",1.093757,61.58,"chrome","107.0.0","Windows 10","MullerLyer",1,20,"MullerLyer_23.0000_-0.29056",23,"Incongruent","-1",0.29056,"down",0,"714"
"S002","Illusion_Session1",2,38.99245,"1517x721",1.093757,61.58,"chrome","107.0.0","Windows 10","MullerLyer",1,21,"MullerLyer_-11.17143_0.10808",-11.17143,"Congruent","1",0.10808,"up",0,"529"
"S002","Illusion_Session1",2,38.99245,"1517x721",1.093757,61.58,"chrome","107.0.0","Windows 10","MullerLyer",1,22,"MullerLyer_-11.17143_0.05000",-11.17143,"Congruent","1",0.05,"up",0,"902"
"S002","Illusion_Session1",2,38.99245,"1517x721",1.093757,61.58,"chrome","107.0.0","Windows 10","MullerLyer",1,23,"MullerLyer_-17.08571_0.05000",-17.08571,"Congruent","1",0.05,"up",0,"758"
"S002","Illusion_Session1",2,38.99245,"1517x721",1.093757,61.58,"chrome","107.0.0","Windows 10","MullerLyer",1,24,"MullerLyer_23.0000_-0.10808",23,"Incongruent","-1",0.10808,"up",1,"886"
"S002","Illusion_Session1",2,38.99245,"1517x721",1.093757,61.58,"chrome","107.0.0","Windows 10","MullerLyer",1,25,"MullerLyer_-5.25714_-0.29056",-5.25714,"Congruent","-1",0.29056,"down",0,"673"
"S002","Illusion_Session1",2,38.99245,"1517x721",1.093757,61.58,"chrome","107.0.0","Windows 10","MullerLyer",1,26,"MullerLyer_5.25714_-0.0500",5.25714,"Incongruent","-1",0.05,"down",0,"819"
"S002","Illusion_Session1",2,38.99245,"1517x721",1.093757,61.58,"chrome","107.0.0","Windows 10","MullerLyer",1,27,"MullerLyer_-23.000_0.10808",-23,"Congruent","1",0.10808,"up",0,"559"
"S002","Illusion_Session1",2,38.99245,"1517x721",1.093757,61.58,"chrome","107.0.0","Windows 10","MullerLyer",1,28,"MullerLyer_23.0000_0.10808",23,"Incongruent","1",0.10808,"down",1,"615"
"S002","Illusion_Session1",2,38.99245,"1517x721",1.093757,61.58,"chrome","107.0.0","Windows 10","MullerLyer",1,29,"MullerLyer_11.17143_-0.0500",11.17143,"Incongruent","-1",0.05,"up",1,"1219"
"S002","Illusion_Session1",2,38.99245,"1517x721",1.093757,61.58,"chrome","107.0.0","Windows 10","MullerLyer",1,30,"MullerLyer_23.0000_-0.18826",23,"Incongruent","-1",0.18826,"up",1,"818"
"S002","Illusion_Session1",2,38.99245,"1517x721",1.093757,61.58,"chrome","107.0.0","Windows 10","MullerLyer",1,31,"MullerLyer_-17.08571_-0.18826",-17.08571,"Congruent","-1",0.18826,"down",0,"629"
"S002","Illusion_Session1",2,38.99245,"1517x721",1.093757,61.58,"chrome","107.0.0","Windows 10","MullerLyer",1,32,"MullerLyer_-5.25714_0.05000",-5.25714,"Congruent","1",0.05,"up",0,"685"
"S002","Illusion_Session1",2,38.99245,"1517x721",1.093757,61.58,"chrome","107.0.0","Windows 10","MullerLyer",1,33,"MullerLyer_17.08571_-0.18826",17.08571,"Incongruent","-1",0.18826,"down",0,"1062"
"S002","Illusion_Session1",2,38.99245,"1517x721",1.093757,61.58,"chrome","107.0.0","Windows 10","MullerLyer",1,34,"MullerLyer_23.0000_0.18826",23,"Incongruent","1",0.18826,"down",1,"876"
"S002","Illusion_Session1",2,38.99245,"1517x721",1.093757,61.58,"chrome","107.0.0","Windows 10","MullerLyer",1,35,"MullerLyer_-11.17143_-0.10808",-11.17143,"Congruent","-1",0.10808,"down",0,"640"
"S002","Illusion_Session1",2,38.99245,"1517x721",1.093757,61.58,"chrome","107.0.0","Windows 10","MullerLyer",1,36,"MullerLyer_-17.08571_-0.29056",-17.08571,"Congruent","-1",0.29056,"down",0,"613"
"S002","Illusion_Session1",2,38.99245,"1517x721",1.093757,61.58,"chrome","107.0.0","Windows 10","MullerLyer",1,37,"MullerLyer_-11.17143_0.29056",-11.17143,"Congruent","1",0.29056,"up",0,"607"
"S002","Illusion_Session1",2,38.99245,"1517x721",1.093757,61.58,"chrome","107.0.0","Windows 10","MullerLyer",1,38,"MullerLyer_-5.25714_0.10808",-5.25714,"Congruent","1",0.10808,"up",0,"954"
"S002","Illusion_Session1",2,38.99245,"1517x721",1.093757,61.58,"chrome","107.0.0","Windows 10","MullerLyer",1,39,"MullerLyer_17.08571_-0.0500",17.08571,"Incongruent","-1",0.05,"up",1,"941"
"S002","Illusion_Session1",2,38.99245,"1517x721",1.093757,61.58,"chrome","107.0.0","Windows 10","MullerLyer",1,40,"MullerLyer_5.25714_-0.18826",5.25714,"Incongruent","-1",0.18826,"down",0,"619"
"S002","Illusion_Session1",2,38.99245,"1517x721",1.093757,61.58,"chrome","107.0.0","Windows 10","MullerLyer",1,41,"MullerLyer_-23.000_-0.18826",-23,"Congruent","-1",0.18826,"down",0,"569"
"S002","Illusion_Session1",2,38.99245,"1517x721",1.093757,61.58,"chrome","107.0.0","Windows 10","MullerLyer",1,42,"MullerLyer_5.25714_-0.29056",5.25714,"Incongruent","-1",0.29056,"down",0,"659"
"S002","Illusion_Session1",2,38.99245,"1517x721",1.093757,61.58,"chrome","107.0.0","Windows 10","MullerLyer",1,43,"MullerLyer_11.17143_-0.10808",11.17143,"Incongruent","-1",0.10808,"up",1,"1095"
"S002","Illusion_Session1",2,38.99245,"1517x721",1.093757,61.58,"chrome","107.0.0","Windows 10","MullerLyer",1,44,"MullerLyer_-17.08571_-0.0500",-17.08571,"Congruent","-1",0.05,"down",0,"509"
"S002","Illusion_Session1",2,38.99245,"1517x721",1.093757,61.58,"chrome","107.0.0","Windows 10","MullerLyer",1,45,"MullerLyer_-5.25714_-0.18826",-5.25714,"Congruent","-1",0.18826,"down",0,"739"
"S002","Illusion_Session1",2,38.99245,"1517x721",1.093757,61.58,"chrome","107.0.0","Windows 10","MullerLyer",1,46,"MullerLyer_5.25714_0.10808",5.25714,"Incongruent","1",0.10808,"down",1,"1008"
"S002","Illusion_Session1",2,38.99245,"1517x721",1.093757,61.58,"chrome","107.0.0","Windows 10","MullerLyer",1,47,"MullerLyer_5.25714_0.18826",5.25714,"Incongruent","1",0.18826,"up",0,"1017"
"S002","Illusion_Session1",2,38.99245,"1517x721",1.093757,61.58,"chrome","107.0.0","Windows 10","MullerLyer",1,48,"MullerLyer_-23.000_0.29056",-23,"Congruent","1",0.29056,"up",0,"634"
"S002","Illusion_Session1",2,38.99245,"1517x721",1.093757,61.58,"chrome","107.0.0","Windows 10","MullerLyer",1,49,"MullerLyer_-23.000_0.05000",-23,"Congruent","1",0.05,"up",0,"669"
"S002","Illusion_Session1",2,38.99245,"1517x721",1.093757,61.58,"chrome","107.0.0","Windows 10","MullerLyer",1,50,"MullerLyer_17.08571_0.29056",17.08571,"Incongruent","1",0.29056,"up",0,"882"
"S002","Illusion_Session1",2,38.99245,"1517x721",1.093757,61.58,"chrome","107.0.0","Windows 10","MullerLyer",1,51,"MullerLyer_23.0000_0.29056",23,"Incongruent","1",0.29056,"up",0,"1945"
"S002","Illusion_Session1",2,38.99245,"1517x721",1.093757,61.58,"chrome","107.0.0","Windows 10","MullerLyer",1,52,"MullerLyer_17.08571_0.05000",17.08571,"Incongruent","1",0.05,"down",1,"810"
"S002","Illusion_Session1",2,38.99245,"1517x721",1.093757,61.58,"chrome","107.0.0","Windows 10","MullerLyer",1,53,"MullerLyer_17.08571_0.10808",17.08571,"Incongruent","1",0.10808,"down",1,"941"
"S002","Illusion_Session1",2,38.99245,"1517x721",1.093757,61.58,"chrome","107.0.0","Windows 10","MullerLyer",1,54,"MullerLyer_-23.000_-0.29056",-23,"Congruent","-1",0.29056,"down",0,"550"
"S002","Illusion_Session1",2,38.99245,"1517x721",1.093757,61.58,"chrome","107.0.0","Windows 10","MullerLyer",1,55,"MullerLyer_17.08571_-0.10808",17.08571,"Incongruent","-1",0.10808,"up",1,"827"
"S002","Illusion_Session1",2,38.99245,"1517x721",1.093757,61.58,"chrome","107.0.0","Windows 10","MullerLyer",1,56,"MullerLyer_11.17143_0.05000",11.17143,"Incongruent","1",0.05,"down",1,"1383"
"S002","Illusion_Session1",2,38.99245,"1517x721",1.093757,61.58,"chrome","107.0.0","Windows 10","MullerLyer",1,57,"MullerLyer_-17.08571_0.18826",-17.08571,"Congruent","1",0.18826,"up",0,"1117"
"S002","Illusion_Session1",2,38.99245,"1517x721",1.093757,61.58,"chrome","107.0.0","Windows 10","MullerLyer",1,58,"MullerLyer_-5.25714_0.18826",-5.25714,"Congruent","1",0.18826,"up",0,"798"
"S002","Illusion_Session1",2,38.99245,"1517x721",1.093757,61.58,"chrome","107.0.0","Windows 10","MullerLyer",1,59,"MullerLyer_-5.25714_0.29056",-5.25714,"Congruent","1",0.29056,"up",0,"749"
"S002","Illusion_Session1",2,38.99245,"1517x721",1.093757,61.58,"chrome","107.0.0","Windows 10","MullerLyer",1,60,"MullerLyer_-17.08571_0.10808",-17.08571,"Congruent","1",0.10808,"up",0,"872"
"S002","Illusion_Session1",2,38.99245,"1517x721",1.093757,61.58,"chrome","107.0.0","Windows 10","MullerLyer",1,61,"MullerLyer_-17.08571_0.29056",-17.08571,"Congruent","1",0.29056,"up",0,"617"
"S002","Illusion_Session1",2,38.99245,"1517x721",1.093757,61.58,"chrome","107.0.0","Windows 10","MullerLyer",1,62,"MullerLyer_23.0000_0.05000",23,"Incongruent","1",0.05,"down",1,"826"
"S002","Illusion_Session1",2,38.99245,"1517x721",1.093757,61.58,"chrome","107.0.0","Windows 10","MullerLyer",1,63,"MullerLyer_-11.17143_-0.29056",-11.17143,"Congruent","-1",0.29056,"down",0,"703"
"S002","Illusion_Session1",2,38.99245,"1517x721",1.093757,61.58,"chrome","107.0.0","Windows 10","MullerLyer",1,64,"MullerLyer_11.17143_-0.18826",11.17143,"Incongruent","-1",0.18826,"up",1,"894"
"S002","Illusion_Session1",2,38.99245,"1517x721",1.093757,61.58,"chrome","107.0.0","Windows 10","MullerLyer",1,65,"MullerLyer_-23.000_-0.10808",-23,"Congruent","-1",0.10808,"down",0,"684"
"S002","Illusion_Session1",2,38.99245,"1517x721",1.093757,61.58,"chrome","107.0.0","Windows 10","MullerLyer",1,66,"MullerLyer_11.17143_0.10808",11.17143,"Incongruent","1",0.10808,"up",0,"1335"
"S002","Illusion_Session1",2,38.99245,"1517x721",1.093757,61.58,"chrome","107.0.0","Windows 10","MullerLyer",1,67,"MullerLyer_23.0000_-0.0500",23,"Incongruent","-1",0.05,"up",1,"769"
"S002","Illusion_Session1",2,38.99245,"1517x721",1.093757,61.58,"chrome","107.0.0","Windows 10","MullerLyer",1,68,"MullerLyer_-11.17143_-0.0500",-11.17143,"Congruent","-1",0.05,"down",0,"2471"
"S002","Illusion_Session1",2,38.99245,"1517x721",1.093757,61.58,"chrome","107.0.0","Windows 10","MullerLyer",1,69,"MullerLyer_17.08571_-0.29056",17.08571,"Incongruent","-1",0.29056,"down",0,"1025"
"S002","Illusion_Session1",2,38.99245,"1517x721",1.093757,61.58,"chrome","107.0.0","Windows 10","MullerLyer",1,70,"MullerLyer_-17.08571_-0.10808",-17.08571,"Congruent","-1",0.10808,"down",0,"887"
"S002","Illusion_Session1",2,38.99245,"1517x721",1.093757,61.58,"chrome","107.0.0","Windows 10","MullerLyer",1,71,"MullerLyer_11.17143_-0.29056",11.17143,"Incongruent","-1",0.29056,"down",0,"743"
"S002","Illusion_Session1",2,38.99245,"1517x721",1.093757,61.58,"chrome","107.0.0","Windows 10","MullerLyer",1,72,"MullerLyer_-23.000_0.18826",-23,"Congruent","1",0.18826,"up",0,"822"
"S002","Illusion_Session1",2,38.99245,"1517x721",1.093757,61.58,"chrome","107.0.0","Windows 10","MullerLyer",1,73,"MullerLyer_11.17143_0.18826",11.17143,"Incongruent","1",0.18826,"up",0,"1245"
"S002","Illusion_Session1",2,38.99245,"1517x721",1.093757,61.58,"chrome","107.0.0","Windows 10","MullerLyer",1,74,"MullerLyer_-23.000_-0.0500",-23,"Congruent","-1",0.05,"down",0,"572"
"S002","Illusion_Session1",2,38.99245,"1517x721",1.093757,61.58,"chrome","107.0.0","Windows 10","MullerLyer",1,75,"MullerLyer_17.08571_0.18826",17.08571,"Incongruent","1",0.18826,"down",1,"672"
"S002","Illusion_Session1",2,38.99245,"1517x721",1.093757,61.58,"chrome","107.0.0","Windows 10","MullerLyer",1,76,"MullerLyer_5.25714_-0.10808",5.25714,"Incongruent","-1",0.10808,"down",0,"861"
"S002","Illusion_Session1",2,38.99245,"1517x721",1.093757,61.58,"chrome","107.0.0","Windows 10","MullerLyer",1,77,"MullerLyer_5.25714_0.05000",5.25714,"Incongruent","1",0.05,"up",0,"1049"
"S002","Illusion_Session1",2,38.99245,"1517x721",1.093757,61.58,"chrome","107.0.0","Windows 10","MullerLyer",1,78,"MullerLyer_-5.25714_-0.10808",-5.25714,"Congruent","-1",0.10808,"down",0,"552"
"S002","Illusion_Session1",2,38.99245,"1517x721",1.093757,61.58,"chrome","107.0.0","Windows 10","MullerLyer",1,79,"MullerLyer_11.17143_0.29056",11.17143,"Incongruent","1",0.29056,"up",0,"927"
"S002","Illusion_Session1",2,38.99245,"1517x721",1.093757,61.58,"chrome","107.0.0","Windows 10","MullerLyer",1,80,"MullerLyer_5.25714_0.29056",5.25714,"Incongruent","1",0.29056,"up",0,"589"
"S002","Illusion_Session1",2,38.99245,"1517x721",1.093757,61.58,"chrome","107.0.0","Windows 10","MullerLyer",1,81,"MullerLyer_-5.25714_-0.0500",-5.25714,"Congruent","-1",0.05,"down",0,"1770"
"S002","Illusion_Session1",2,38.99245,"1517x721",1.093757,61.58,"chrome","107.0.0","Windows 10","MullerLyer",1,82,"MullerLyer_-11.17143_-0.18826",-11.17143,"Congruent","-1",0.18826,"down",0,"566"
"S002","Illusion_Session1",2,38.99245,"1517x721",1.093757,61.58,"chrome","107.0.0","Windows 10","Ebbinghaus",2,1,"Ebbinghaus_0.22857_-0.0900",0.22857,"Incongruent","-1",0.09,"right",0,"688"
"S002","Illusion_Session1",2,38.99245,"1517x721",1.093757,61.58,"chrome","107.0.0","Windows 10","Ebbinghaus",2,2,"Ebbinghaus_-1.0000_0.13357",-1,"Congruent","1",0.13357,"right",1,"560"
"S002","Illusion_Session1",2,38.99245,"1517x721",1.093757,61.58,"chrome","107.0.0","Windows 10","Ebbinghaus",2,3,"Ebbinghaus_-1.0000_-0.0900",-1,"Congruent","-1",0.09,"left",1,"595"
"S002","Illusion_Session1",2,38.99245,"1517x721",1.093757,61.58,"chrome","107.0.0","Windows 10","Ebbinghaus",2,4,"Ebbinghaus_-0.74286_-0.0900",-0.74286,"Congruent","-1",0.09,"left",1,"570"
"S002","Illusion_Session1",2,38.99245,"1517x721",1.093757,61.58,"chrome","107.0.0","Windows 10","Ebbinghaus",2,5,"Ebbinghaus_0.22857_0.18571",0.22857,"Incongruent","1",0.18571,"left",0,"697"
"S002","Illusion_Session1",2,38.99245,"1517x721",1.093757,61.58,"chrome","107.0.0","Windows 10","Ebbinghaus",2,6,"Ebbinghaus_0.22857_-0.18571",0.22857,"Incongruent","-1",0.18571,"right",0,"589"
"S002","Illusion_Session1",2,38.99245,"1517x721",1.093757,61.58,"chrome","107.0.0","Windows 10","Ebbinghaus",2,7,"Ebbinghaus_-0.22857_-0.0900",-0.22857,"Congruent","-1",0.09,"left",1,"580"
"S002","Illusion_Session1",2,38.99245,"1517x721",1.093757,61.58,"chrome","107.0.0","Windows 10","Ebbinghaus",2,8,"Ebbinghaus_1.00000_-0.13357",1,"Incongruent","-1",0.13357,"right",0,"582"
"S002","Illusion_Session1",2,38.99245,"1517x721",1.093757,61.58,"chrome","107.0.0","Windows 10","Ebbinghaus",2,9,"Ebbinghaus_0.48571_-0.13357",0.48571,"Incongruent","-1",0.13357,"right",0,"633"
"S002","Illusion_Session1",2,38.99245,"1517x721",1.093757,61.58,"chrome","107.0.0","Windows 10","Ebbinghaus",2,10,"Ebbinghaus_-0.22857_0.24643",-0.22857,"Congruent","1",0.24643,"right",1,"830"
"S002","Illusion_Session1",2,38.99245,"1517x721",1.093757,61.58,"chrome","107.0.0","Windows 10","Ebbinghaus",2,11,"Ebbinghaus_-1.0000_0.24643",-1,"Congruent","1",0.24643,"right",1,"605"
"S002","Illusion_Session1",2,38.99245,"1517x721",1.093757,61.58,"chrome","107.0.0","Windows 10","Ebbinghaus",2,12,"Ebbinghaus_-0.22857_-0.13357",-0.22857,"Congruent","-1",0.13357,"left",1,"1037"
"S002","Illusion_Session1",2,38.99245,"1517x721",1.093757,61.58,"chrome","107.0.0","Windows 10","Ebbinghaus",2,13,"Ebbinghaus_0.48571_-0.0900",0.48571,"Incongruent","-1",0.09,"right",0,"541"
"S002","Illusion_Session1",2,38.99245,"1517x721",1.093757,61.58,"chrome","107.0.0","Windows 10","Ebbinghaus",2,14,"Ebbinghaus_0.74286_-0.0900",0.74286,"Incongruent","-1",0.09,"right",0,"474"
"S002","Illusion_Session1",2,38.99245,"1517x721",1.093757,61.58,"chrome","107.0.0","Windows 10","Ebbinghaus",2,15,"Ebbinghaus_-0.48571_-0.0900",-0.48571,"Congruent","-1",0.09,"left",1,"677"
"S002","Illusion_Session1",2,38.99245,"1517x721",1.093757,61.58,"chrome","107.0.0","Windows 10","Ebbinghaus",2,16,"Ebbinghaus_0.22857_0.24643",0.22857,"Incongruent","1",0.24643,"left",0,"655"
"S002","Illusion_Session1",2,38.99245,"1517x721",1.093757,61.58,"chrome","107.0.0","Windows 10","Ebbinghaus",2,17,"Ebbinghaus_-0.48571_0.24643",-0.48571,"Congruent","1",0.24643,"right",1,"594"
"S002","Illusion_Session1",2,38.99245,"1517x721",1.093757,61.58,"chrome","107.0.0","Windows 10","Ebbinghaus",2,18,"Ebbinghaus_-1.0000_-0.24643",-1,"Congruent","-1",0.24643,"left",1,"742"
"S002","Illusion_Session1",2,38.99245,"1517x721",1.093757,61.58,"chrome","107.0.0","Windows 10","Ebbinghaus",2,19,"Ebbinghaus_0.48571_0.24643",0.48571,"Incongruent","1",0.24643,"left",0,"534"
"S002","Illusion_Session1",2,38.99245,"1517x721",1.093757,61.58,"chrome","107.0.0","Windows 10","Ebbinghaus",2,20,"Ebbinghaus_0.74286_0.24643",0.74286,"Incongruent","1",0.24643,"left",0,"530"
"S002","Illusion_Session1",2,38.99245,"1517x721",1.093757,61.58,"chrome","107.0.0","Windows 10","Ebbinghaus",2,21,"Ebbinghaus_-0.22857_-0.18571",-0.22857,"Congruent","-1",0.18571,"left",1,"803"
"S002","Illusion_Session1",2,38.99245,"1517x721",1.093757,61.58,"chrome","107.0.0","Windows 10","Ebbinghaus",2,22,"Ebbinghaus_-0.74286_0.18571",-0.74286,"Congruent","1",0.18571,"right",1,"564"
"S002","Illusion_Session1",2,38.99245,"1517x721",1.093757,61.58,"chrome","107.0.0","Windows 10","Ebbinghaus",2,23,"Ebbinghaus_0.74286_0.13357",0.74286,"Incongruent","1",0.13357,"left",0,"628"
"S002","Illusion_Session1",2,38.99245,"1517x721",1.093757,61.58,"chrome","107.0.0","Windows 10","Ebbinghaus",2,24,"Ebbinghaus_0.22857_0.09000",0.22857,"Incongruent","1",0.09,"left",0,"523"
"S002","Illusion_Session1",2,38.99245,"1517x721",1.093757,61.58,"chrome","107.0.0","Windows 10","Ebbinghaus",2,25,"Ebbinghaus_-1.0000_0.09000",-1,"Congruent","1",0.09,"right",1,"551"
"S002","Illusion_Session1",2,38.99245,"1517x721",1.093757,61.58,"chrome","107.0.0","Windows 10","Ebbinghaus",2,26,"Ebbinghaus_-0.48571_-0.24643",-0.48571,"Congruent","-1",0.24643,"left",1,"613"
"S002","Illusion_Session1",2,38.99245,"1517x721",1.093757,61.58,"chrome","107.0.0","Windows 10","Ebbinghaus",2,27,"Ebbinghaus_1.00000_-0.18571",1,"Incongruent","-1",0.18571,"right",0,"558"
"S002","Illusion_Session1",2,38.99245,"1517x721",1.093757,61.58,"chrome","107.0.0","Windows 10","Ebbinghaus",2,28,"Ebbinghaus_0.48571_0.13357",0.48571,"Incongruent","1",0.13357,"left",0,"554"
"S002","Illusion_Session1",2,38.99245,"1517x721",1.093757,61.58,"chrome","107.0.0","Windows 10","Ebbinghaus",2,29,"Ebbinghaus_0.48571_-0.18571",0.48571,"Incongruent","-1",0.18571,"right",0,"498"
"S002","Illusion_Session1",2,38.99245,"1517x721",1.093757,61.58,"chrome","107.0.0","Windows 10","Ebbinghaus",2,30,"Ebbinghaus_-0.22857_0.18571",-0.22857,"Congruent","1",0.18571,"right",1,"1517"
"S002","Illusion_Session1",2,38.99245,"1517x721",1.093757,61.58,"chrome","107.0.0","Windows 10","Ebbinghaus",2,31,"Ebbinghaus_-1.0000_-0.18571",-1,"Congruent","-1",0.18571,"left",1,"513"
"S002","Illusion_Session1",2,38.99245,"1517x721",1.093757,61.58,"chrome","107.0.0","Windows 10","Ebbinghaus",2,32,"Ebbinghaus_-0.48571_-0.18571",-0.48571,"Congruent","-1",0.18571,"left",1,"670"
"S002","Illusion_Session1",2,38.99245,"1517x721",1.093757,61.58,"chrome","107.0.0","Windows 10","Ebbinghaus",2,33,"Ebbinghaus_-0.48571_0.13357",-0.48571,"Congruent","1",0.13357,"right",1,"748"
"S002","Illusion_Session1",2,38.99245,"1517x721",1.093757,61.58,"chrome","107.0.0","Windows 10","Ebbinghaus",2,34,"Ebbinghaus_0.74286_0.18571",0.74286,"Incongruent","1",0.18571,"left",0,"634"
"S002","Illusion_Session1",2,38.99245,"1517x721",1.093757,61.58,"chrome","107.0.0","Windows 10","Ebbinghaus",2,35,"Ebbinghaus_-0.22857_0.13357",-0.22857,"Congruent","1",0.13357,"right",1,"499"
"S002","Illusion_Session1",2,38.99245,"1517x721",1.093757,61.58,"chrome","107.0.0","Windows 10","Ebbinghaus",2,36,"Ebbinghaus_-0.22857_-0.24643",-0.22857,"Congruent","-1",0.24643,"left",1,"1046"
"S002","Illusion_Session1",2,38.99245,"1517x721",1.093757,61.58,"chrome","107.0.0","Windows 10","Ebbinghaus",2,37,"Ebbinghaus_0.22857_-0.13357",0.22857,"Incongruent","-1",0.13357,"right",0,"643"
"S002","Illusion_Session1",2,38.99245,"1517x721",1.093757,61.58,"chrome","107.0.0","Windows 10","Ebbinghaus",2,38,"Ebbinghaus_-0.74286_-0.18571",-0.74286,"Congruent","-1",0.18571,"left",1,"793"
"S002","Illusion_Session1",2,38.99245,"1517x721",1.093757,61.58,"chrome","107.0.0","Windows 10","Ebbinghaus",2,39,"Ebbinghaus_0.48571_0.18571",0.48571,"Incongruent","1",0.18571,"left",0,"677"
"S002","Illusion_Session1",2,38.99245,"1517x721",1.093757,61.58,"chrome","107.0.0","Windows 10","Ebbinghaus",2,40,"Ebbinghaus_0.74286_-0.13357",0.74286,"Incongruent","-1",0.13357,"right",0,"691"
"S002","Illusion_Session1",2,38.99245,"1517x721",1.093757,61.58,"chrome","107.0.0","Windows 10","Ebbinghaus",2,41,"Ebbinghaus_0.74286_-0.24643",0.74286,"Incongruent","-1",0.24643,"right",0,"566"
"S002","Illusion_Session1",2,38.99245,"1517x721",1.093757,61.58,"chrome","107.0.0","Windows 10","Ebbinghaus",2,42,"Ebbinghaus_0.74286_0.09000",0.74286,"Incongruent","1",0.09,"left",0,"736"
"S002","Illusion_Session1",2,38.99245,"1517x721",1.093757,61.58,"chrome","107.0.0","Windows 10","Ebbinghaus",2,43,"Ebbinghaus_0.74286_-0.18571",0.74286,"Incongruent","-1",0.18571,"right",0,"547"
"S002","Illusion_Session1",2,38.99245,"1517x721",1.093757,61.58,"chrome","107.0.0","Windows 10","Ebbinghaus",2,44,"Ebbinghaus_0.48571_-0.24643",0.48571,"Incongruent","-1",0.24643,"right",0,"612"
"S002","Illusion_Session1",2,38.99245,"1517x721",1.093757,61.58,"chrome","107.0.0","Windows 10","Ebbinghaus",2,45,"Ebbinghaus_-1.0000_-0.13357",-1,"Congruent","-1",0.13357,"left",1,"607"
"S002","Illusion_Session1",2,38.99245,"1517x721",1.093757,61.58,"chrome","107.0.0","Windows 10","Ebbinghaus",2,46,"Ebbinghaus_-0.74286_0.13357",-0.74286,"Congruent","1",0.13357,"right",1,"607"
"S002","Illusion_Session1",2,38.99245,"1517x721",1.093757,61.58,"chrome","107.0.0","Windows 10","Ebbinghaus",2,47,"Ebbinghaus_-1.0000_0.18571",-1,"Congruent","1",0.18571,"right",1,"562"
"S002","Illusion_Session1",2,38.99245,"1517x721",1.093757,61.58,"chrome","107.0.0","Windows 10","Ebbinghaus",2,48,"Ebbinghaus_1.00000_-0.0900",1,"Incongruent","-1",0.09,"right",0,"555"
"S002","Illusion_Session1",2,38.99245,"1517x721",1.093757,61.58,"chrome","107.0.0","Windows 10","Ebbinghaus",2,49,"Ebbinghaus_-0.74286_0.09000",-0.74286,"Congruent","1",0.09,"right",1,"690"
"S002","Illusion_Session1",2,38.99245,"1517x721",1.093757,61.58,"chrome","107.0.0","Windows 10","Ebbinghaus",2,50,"Ebbinghaus_-0.74286_-0.13357",-0.74286,"Congruent","-1",0.13357,"left",1,"779"
"S002","Illusion_Session1",2,38.99245,"1517x721",1.093757,61.58,"chrome","107.0.0","Windows 10","Ebbinghaus",2,51,"Ebbinghaus_0.22857_0.13357",0.22857,"Incongruent","1",0.13357,"left",0,"711"
"S002","Illusion_Session1",2,38.99245,"1517x721",1.093757,61.58,"chrome","107.0.0","Windows 10","Ebbinghaus",2,52,"Ebbinghaus_0.22857_-0.24643",0.22857,"Incongruent","-1",0.24643,"right",0,"625"
"S002","Illusion_Session1",2,38.99245,"1517x721",1.093757,61.58,"chrome","107.0.0","Windows 10","Ebbinghaus",2,53,"Ebbinghaus_1.00000_0.18571",1,"Incongruent","1",0.18571,"left",0,"575"
"S002","Illusion_Session1",2,38.99245,"1517x721",1.093757,61.58,"chrome","107.0.0","Windows 10","Ebbinghaus",2,54,"Ebbinghaus_1.00000_0.09000",1,"Incongruent","1",0.09,"left",0,"583"
